,block,stimulus_block,stimulus_side,key_press,responses,rt,stimulus,stimulus_2,stimulus_block,stimulus_side,sub_block,subject,tags1,tags2,time_elapsed,trial_type
0,,,,,,37880,,,,,,,,,37881,instructions
1,0,training,1,D,,4199.8,Training3.png,,training,1,0,5,,,42309,bRMS
2,0,training,0,K,,1642,Training10.png,,training,0,0,5,,,44692,bRMS
3,0,training,0,K,,1184.5,Training7.png,,training,0,0,5,,,46503,bRMS
4,0,training,1,D,,1133.9,Training6.png,,training,1,0,5,,,48264,bRMS
5,0,training,1,D,,1056.8,Training1.png,,training,1,0,5,,,49954,bRMS
6,0,training,1,D,,1237.7,Training8.png,,training,1,0,5,,,51806,bRMS
7,0,training,0,K,,1263.8,Training4.png,,training,0,0,5,,,53766,bRMS
8,0,training,0,K,,1104.5,Training2.png,,training,0,0,5,,,55488,bRMS
9,0,training,1,D,,1734,Training5.png,,training,1,0,5,,,57816,bRMS
10,0,training,1,D,,1094.7,Training9.png,,training,1,0,5,,,59503,bRMS
11,,,,,,18838,,,,,,,,,78751,instructions
12,1,A,0,K,,3102.2,f42887_e_298 copy.png,f42887_e_231 copy.png,A,0,0,5,['A'],['B'],82048,bRMS
13,1,A,0,D,,1988.3,f42887_e_025 copy.png,f42887_e_289 copy.png,A,0,0,5,['A'],['B'],84627,bRMS
14,1,A,1,K,,2150.5,f42887_e_025 copy.png,f42887_e_054 copy.png,A,1,0,5,['A'],['B'],87380,bRMS
15,1,A,1,K,,1494.8,f42887_e_156 copy.png,f42887_e_080 copy.png,A,1,0,5,['A'],['B'],89525,bRMS
16,1,A,1,D,,999.8,f42887_e_121 copy.png,f42887_e_166 copy.png,A,1,0,5,['A'],['B'],91144,bRMS
17,1,A,0,K,,1774.3,f42887_e_252 copy.png,f42887_e_161 copy.png,A,0,0,5,['A'],['B'],93547,bRMS
18,1,A,1,D,,1533.9,f42887_e_005 copy.png,f42887_e_056 copy.png,A,1,0,5,['A'],['B'],95716,bRMS
19,1,A,1,K,,1293.9,f42887_e_058 copy.png,f42887_e_065 copy.png,A,1,0,5,['A'],['B'],97670,bRMS
20,1,A,0,K,,2533.9,f42887_e_127 copy.png,f42887_e_191 copy.png,A,0,0,5,['A'],['B'],100807,bRMS
21,1,A,1,K,,1218.4,f42887_e_252 copy.png,f42887_e_004 copy.png,A,1,0,5,['A'],['B'],102881,bRMS
22,1,A,1,K,,1471,f42887_e_058 copy.png,f42887_e_120 copy.png,A,1,0,5,['A'],['B'],104980,bRMS
23,1,A,1,K,,1361.8,f42887_e_298 copy.png,f42887_e_200 copy.png,A,1,0,5,['A'],['B'],107121,bRMS
24,1,A,0,K,,1065,f42887_e_064 copy.png,f42887_e_295 copy.png,A,0,0,5,['A'],['B'],108866,bRMS
25,1,A,0,K,,1004.5,f42887_e_064 copy.png,f42887_e_287 copy.png,A,0,0,5,['A'],['B'],110482,bRMS
26,1,A,0,K,,1052.3,f42887_e_156 copy.png,f42887_e_235 copy.png,A,0,0,5,['A'],['B'],112189,bRMS
27,1,A,1,K,,857.7,f42887_e_121 copy.png,f42887_e_016 copy.png,A,1,0,5,['A'],['B'],113675,bRMS
28,1,A,1,K,,820.5,f42887_e_127 copy.png,f42887_e_180 copy.png,A,1,0,5,['A'],['B'],115229,bRMS
29,3,B,0,K,,1452.7,f42887_e_295 copy.png,f42887_e_024 copy.png,B,0,0,5,['B'],['C'],117337,bRMS
30,3,B,0,K,,1855.6,f42887_e_120 copy.png,f42887_e_238 copy.png,B,0,0,5,['B'],['C'],119796,bRMS
31,3,B,0,K,,851.7,f42887_e_065 copy.png,f42887_e_212 copy.png,B,0,0,5,['B'],['C'],121339,bRMS
32,3,B,1,D,,1315.3,f42887_e_166 copy.png,f42887_e_266 copy.png,B,1,0,5,['B'],['C'],123267,bRMS
33,3,B,1,D,,1260.2,f42887_e_080 copy.png,f42887_e_273 copy.png,B,1,0,5,['B'],['C'],125161,bRMS
34,3,B,1,K,,1191,f42887_e_054 copy.png,f42887_e_201 copy.png,B,1,0,5,['B'],['C'],126966,bRMS
35,3,B,0,K,,752.4,f42887_e_180 copy.png,f42887_e_134 copy.png,B,0,0,5,['B'],['C'],128427,bRMS
36,3,B,1,D,,1311.5,f42887_e_235 copy.png,f42887_e_240 copy.png,B,1,0,5,['B'],['C'],130411,bRMS
37,3,B,1,K,,1246.5,f42887_e_287 copy.png,f42887_e_068 copy.png,B,1,0,5,['B'],['C'],132297,bRMS
38,3,B,0,D,,1307.7,f42887_e_004 copy.png,f42887_e_197 copy.png,B,0,0,5,['B'],['C'],134218,bRMS
39,3,B,1,K,,1184.2,f42887_e_056 copy.png,f42887_e_176 copy.png,B,1,0,5,['B'],['C'],135978,bRMS
40,3,B,0,K,,1147.7,f42887_e_161 copy.png,f42887_e_291 copy.png,B,0,0,5,['B'],['C'],137753,bRMS
41,3,B,1,K,,1060.9,f42887_e_289 copy.png,f42887_e_069 copy.png,B,1,0,5,['B'],['C'],139517,bRMS
42,3,B,0,K,,1145.6,f42887_e_016 copy.png,f42887_e_265 copy.png,B,0,0,5,['B'],['C'],141253,bRMS
43,3,B,1,K,,1454.9,f42887_e_231 copy.png,f42887_e_021 copy.png,B,1,0,5,['B'],['C'],143357,bRMS
44,3,B,1,K,,1429.5,f42887_e_200 copy.png,f42887_e_210 copy.png,B,1,0,5,['B'],['C'],145419,bRMS
45,3,B,1,K,,1950.8,f42887_e_191 copy.png,f42887_e_067 copy.png,B,1,0,5,['B'],['C'],147961,bRMS
46,2,A,1,K,,1232.7,f42887_e_058 copy.png,f42887_e_265 copy.png,A,1,0,5,['A'],['C'],149806,bRMS
47,2,A,0,K,,1153.3,f42887_e_298 copy.png,f42887_e_067 copy.png,A,0,0,5,['A'],['C'],151537,bRMS
48,2,A,0,K,,1615.8,f42887_e_121 copy.png,f42887_e_273 copy.png,A,0,0,5,['A'],['C'],153771,bRMS
49,2,A,1,K,,1028.8,f42887_e_156 copy.png,f42887_e_134 copy.png,A,1,0,5,['A'],['C'],155396,bRMS
50,2,A,0,K,,1429.4,f42887_e_058 copy.png,f42887_e_021 copy.png,A,0,0,5,['A'],['C'],157409,bRMS
51,2,A,0,K,,1144,f42887_e_064 copy.png,f42887_e_212 copy.png,A,0,0,5,['A'],['C'],159210,bRMS
52,2,A,0,K,,1385.3,f42887_e_005 copy.png,f42887_e_266 copy.png,A,0,0,5,['A'],['C'],161189,bRMS
53,2,A,1,D,,1235,f42887_e_127 copy.png,f42887_e_069 copy.png,A,1,0,5,['A'],['C'],163005,bRMS
54,2,A,1,K,,1704.1,f42887_e_127 copy.png,f42887_e_238 copy.png,A,1,0,5,['A'],['C'],165358,bRMS
55,2,A,1,K,,1339.8,f42887_e_025 copy.png,f42887_e_240 copy.png,A,1,0,5,['A'],['C'],167338,bRMS
56,2,A,1,K,,1721.5,f42887_e_121 copy.png,f42887_e_176 copy.png,A,1,0,5,['A'],['C'],169658,bRMS
57,2,A,1,K,,1343.1,f42887_e_252 copy.png,f42887_e_291 copy.png,A,1,0,5,['A'],['C'],171624,bRMS
58,2,A,0,D,,1342.2,f42887_e_064 copy.png,f42887_e_179 copy.png,A,0,0,5,['A'],['C'],173560,bRMS
59,2,A,1,K,,2423.4,f42887_e_025 copy.png,f42887_e_068 copy.png,A,1,0,5,['A'],['C'],176572,bRMS
60,2,A,1,K,,1312.6,f42887_e_156 copy.png,f42887_e_201 copy.png,A,1,0,5,['A'],['C'],178516,bRMS
61,2,A,1,K,,1201.7,f42887_e_298 copy.png,f42887_e_210 copy.png,A,1,0,5,['A'],['C'],180313,bRMS
62,2,A,0,K,,1775.8,f42887_e_252 copy.png,f42887_e_197 copy.png,A,0,0,5,['A'],['C'],182695,bRMS
63,4,B,0,K,,1517.2,f42887_e_056 copy.png,f42887_e_189 copy.png,B,0,0,5,['B'],['D'],184799,bRMS
64,4,B,0,K,,1537.9,f42887_e_180 copy.png,f42887_e_278 copy.png,B,0,0,5,['B'],['D'],186957,bRMS
65,4,B,0,K,,1418.5,f42887_e_080 copy.png,f42887_e_178 copy.png,B,0,0,5,['B'],['D'],188988,bRMS
66,4,B,1,K,,1083.4,f42887_e_004 copy.png,f42887_e_038 copy.png,B,1,0,5,['B'],['D'],190729,bRMS
67,4,B,0,K,,1339.2,f42887_e_295 copy.png,f42887_e_237 copy.png,B,0,0,5,['B'],['D'],192688,bRMS
68,4,B,1,K,,1137.4,f42887_e_054 copy.png,f42887_e_241 copy.png,B,1,0,5,['B'],['D'],194428,bRMS
69,4,B,1,K,,1202.5,f42887_e_065 copy.png,f42887_e_043 copy.png,B,1,0,5,['B'],['D'],196243,bRMS
70,4,B,1,K,,1239.5,f42887_e_231 copy.png,f42887_e_293 copy.png,B,1,0,5,['B'],['D'],198090,bRMS
71,4,B,1,K,,1469.8,f42887_e_287 copy.png,f42887_e_165 copy.png,B,1,0,5,['B'],['D'],200182,bRMS
72,4,B,1,K,,1318,f42887_e_120 copy.png,f42887_e_296 copy.png,B,1,0,5,['B'],['D'],202080,bRMS
73,4,B,0,K,,1211.3,f42887_e_016 copy.png,f42887_e_152 copy.png,B,0,0,5,['B'],['D'],203919,bRMS
74,4,B,1,K,,1374.3,f42887_e_161 copy.png,f42887_e_028 copy.png,B,1,0,5,['B'],['D'],205885,bRMS
75,4,B,1,K,,1515.3,f42887_e_191 copy.png,f42887_e_103 copy.png,B,1,0,5,['B'],['D'],208086,bRMS
76,4,B,0,K,,1425.8,f42887_e_166 copy.png,f42887_e_096 copy.png,B,0,0,5,['B'],['D'],210132,bRMS
77,4,B,1,K,,1437.2,f42887_e_289 copy.png,f42887_e_122 copy.png,B,1,0,5,['B'],['D'],212201,bRMS
78,4,B,0,K,,1451.7,f42887_e_235 copy.png,f42887_e_157 copy.png,B,0,0,5,['B'],['D'],214263,bRMS
79,4,B,0,K,,1342.1,f42887_e_200 copy.png,f42887_e_218 copy.png,B,0,0,5,['B'],['D'],216191,bRMS
80,7,D,1,K,,1909.6,f42887_e_178 copy.png,f42887_e_044 copy.png,D,1,0,5,['D'],['E'],218727,bRMS
81,7,D,1,K,,1670.2,f42887_e_103 copy.png,f42887_e_290 copy.png,D,1,0,5,['D'],['E'],221017,bRMS
82,7,D,1,K,,2006.9,f42887_e_043 copy.png,f42887_e_051 copy.png,D,1,0,5,['D'],['E'],223611,bRMS
83,7,D,1,K,,2012.8,f42887_e_152 copy.png,f42887_e_146 copy.png,D,1,0,5,['D'],['E'],226264,bRMS
84,7,D,0,D,,2198.9,f42887_e_218 copy.png,f42887_e_209 copy.png,D,0,0,5,['D'],['E'],229122,bRMS
85,7,D,0,D,,1311.4,f42887_e_096 copy.png,f42887_e_146 copy.png,D,0,0,5,['D'],['E'],231051,bRMS
86,7,D,1,K,,1363.7,f42887_e_157 copy.png,f42887_e_085 copy.png,D,1,0,5,['D'],['E'],232989,bRMS
87,7,D,0,K,,1529.6,f42887_e_165 copy.png,f42887_e_209 copy.png,D,0,0,5,['D'],['E'],235197,bRMS
88,7,D,0,K,,1646.6,f42887_e_122 copy.png,f42887_e_051 copy.png,D,0,0,5,['D'],['E'],237457,bRMS
89,7,D,0,K,,1577.9,f42887_e_296 copy.png,f42887_e_145 copy.png,D,0,0,5,['D'],['E'],239679,bRMS
90,7,D,0,K,,1464.3,f42887_e_241 copy.png,f42887_e_169 copy.png,D,0,0,5,['D'],['E'],241749,bRMS
91,7,D,0,K,,1586.1,f42887_e_237 copy.png,f42887_e_167 copy.png,D,0,0,5,['D'],['E'],243946,bRMS
92,7,D,1,K,,1433.1,f42887_e_293 copy.png,f42887_e_285 copy.png,D,1,0,5,['D'],['E'],245985,bRMS
93,7,D,1,K,,1483.2,f42887_e_189 copy.png,f42887_e_099 copy.png,D,1,0,5,['D'],['E'],248138,bRMS
94,7,D,1,K,,1507.2,f42887_e_038 copy.png,f42887_e_040 copy.png,D,1,0,5,['D'],['E'],250271,bRMS
95,7,D,0,K,,1062.2,f42887_e_028 copy.png,f42887_e_213 copy.png,D,0,0,5,['D'],['E'],251950,bRMS
96,7,D,1,K,,985.7,f42887_e_278 copy.png,f42887_e_000 copy.png,D,1,0,5,['D'],['E'],253534,bRMS
97,5,C,1,K,,1293.1,f42887_e_067 copy.png,f42887_e_165 copy.png,C,1,0,5,['C'],['D'],255414,bRMS
98,5,C,1,K,,1044.4,f42887_e_068 copy.png,f42887_e_122 copy.png,C,1,0,5,['C'],['D'],257058,bRMS
99,5,C,1,K,,941,f42887_e_265 copy.png,f42887_e_189 copy.png,C,1,0,5,['C'],['D'],258648,bRMS
100,5,C,1,K,,1569.3,f42887_e_176 copy.png,f42887_e_278 copy.png,C,1,0,5,['C'],['D'],260837,bRMS
101,5,C,1,D,,1573.2,f42887_e_197 copy.png,f42887_e_178 copy.png,C,1,0,5,['C'],['D'],262999,bRMS
102,5,C,0,K,,1336.8,f42887_e_069 copy.png,f42887_e_237 copy.png,C,0,0,5,['C'],['D'],264927,bRMS
103,5,C,0,K,,1215.4,f42887_e_179 copy.png,f42887_e_296 copy.png,C,0,0,5,['C'],['D'],266742,bRMS
104,5,C,0,K,,1305.3,f42887_e_291 copy.png,f42887_e_157 copy.png,C,0,0,5,['C'],['D'],268643,bRMS
105,5,C,1,K,,1304.3,f42887_e_210 copy.png,f42887_e_096 copy.png,C,1,0,5,['C'],['D'],270570,bRMS
106,5,C,0,K,,1187.9,f42887_e_134 copy.png,f42887_e_241 copy.png,C,0,0,5,['C'],['D'],272344,bRMS
107,5,C,1,D,,1863.9,f42887_e_024 copy.png,f42887_e_043 copy.png,C,1,0,5,['C'],['D'],274909,bRMS
108,5,C,0,K,,1145.6,f42887_e_266 copy.png,f42887_e_028 copy.png,C,0,0,5,['C'],['D'],276632,bRMS
109,5,C,1,D,,1175.3,f42887_e_240 copy.png,f42887_e_293 copy.png,C,1,0,5,['C'],['D'],278403,bRMS
110,5,C,1,D,,1492.7,f42887_e_212 copy.png,f42887_e_152 copy.png,C,1,0,5,['C'],['D'],280500,bRMS
111,5,C,0,K,,1252,f42887_e_021 copy.png,f42887_e_218 copy.png,C,0,0,5,['C'],['D'],282369,bRMS
112,5,C,1,D,,1250.3,f42887_e_201 copy.png,f42887_e_103 copy.png,C,1,0,5,['C'],['D'],284237,bRMS
113,5,C,0,K,,1294.5,f42887_e_273 copy.png,f42887_e_038 copy.png,C,0,0,5,['C'],['D'],286116,bRMS
114,6,C,1,D,,1383.9,f42887_e_067 copy.png,f42887_e_215 copy.png,C,1,0,5,['C'],['E'],288082,bRMS
115,6,C,1,D,,1337.4,f42887_e_134 copy.png,f42887_e_146 copy.png,C,1,0,5,['C'],['E'],290039,bRMS
116,6,C,1,D,,1663.5,f42887_e_197 copy.png,f42887_e_051 copy.png,C,1,0,5,['C'],['E'],292302,bRMS
117,6,C,0,K,,721.7,f42887_e_238 copy.png,f42887_e_000 copy.png,C,0,0,5,['C'],['E'],293678,bRMS
118,6,C,0,K,,1467,f42887_e_176 copy.png,f42887_e_290 copy.png,C,0,0,5,['C'],['E'],295768,bRMS
119,6,C,1,D,,1165.1,f42887_e_291 copy.png,f42887_e_051 copy.png,C,1,0,5,['C'],['E'],297538,bRMS
120,6,C,1,D,,1517.1,f42887_e_265 copy.png,f42887_e_146 copy.png,C,1,0,5,['C'],['E'],299702,bRMS
121,6,C,1,D,,1545.7,f42887_e_266 copy.png,f42887_e_285 copy.png,C,1,0,5,['C'],['E'],301866,bRMS
122,6,C,1,D,,1527.2,f42887_e_024 copy.png,f42887_e_209 copy.png,C,1,0,5,['C'],['E'],304008,bRMS
123,6,C,0,K,,1185.2,f42887_e_273 copy.png,f42887_e_167 copy.png,C,0,0,5,['C'],['E'],305863,bRMS
124,6,C,0,K,,1402.8,f42887_e_210 copy.png,f42887_e_145 copy.png,C,0,0,5,['C'],['E'],307910,bRMS
125,6,C,1,D,,1462.4,f42887_e_068 copy.png,f42887_e_044 copy.png,C,1,0,5,['C'],['E'],309986,bRMS
126,6,C,0,K,,2303.4,f42887_e_069 copy.png,f42887_e_209 copy.png,C,0,0,5,['C'],['E'],312896,bRMS
127,6,C,1,D,,1173.9,f42887_e_212 copy.png,f42887_e_085 copy.png,C,1,0,5,['C'],['E'],314736,bRMS
128,6,C,1,D,,1329,f42887_e_240 copy.png,f42887_e_169 copy.png,C,1,0,5,['C'],['E'],316666,bRMS
129,6,C,0,K,,1123,f42887_e_201 copy.png,f42887_e_040 copy.png,C,0,0,5,['C'],['E'],318399,bRMS
130,6,C,1,D,,1362.7,f42887_e_021 copy.png,f42887_e_213 copy.png,C,1,0,5,['C'],['E'],320399,bRMS
131,6,C,0,K,,1203.9,f42887_e_179 copy.png,f42887_e_099 copy.png,C,0,0,5,['C'],['E'],322217,bRMS
132,,,,,,2252,,,,,,,,,324887,instructions
133,,,,,"{""Q0"":""Man"",""Q1"":""Right"",""Q2"":""Yes"",""Q3"":""No""}",10490,,,,,,,,,335383,survey-multi-choice
134,,,,,"{""Q0"":3,""Q1"":3}",5214,,,,,,,,,340599,survey-likert
135,,,,,"{""Q0"":3}",5716,,,,,,,,,346317,survey-likert
136,,,,,,4448,,,,,,,,,350765,instructions
0,,,,,,103739,,,,,,,,,103739,instructions
1,0,training,0,K,,2897,Training3.png,,training,0,0,1,,,106704,bRMS
2,0,training,0,K,,2866.9,Training7.png,,training,0,0,1,,,110027,bRMS
3,0,training,1,D,,1754.6,Training9.png,,training,1,0,1,,,112246,bRMS
4,0,training,1,D,,1251.2,Training4.png,,training,1,0,1,,,113962,bRMS
5,0,training,1,D,,1743.4,Training5.png,,training,1,0,1,,,116164,bRMS
6,0,training,0,K,,1417.3,Training2.png,,training,0,0,1,,,118050,bRMS
7,0,training,0,K,,1322.8,Training8.png,,training,0,0,1,,,119844,bRMS
8,0,training,0,K,,6892,Training1.png,,training,0,0,1,,,127196,bRMS
9,0,training,0,K,,1628.3,Training10.png,,training,0,0,1,,,129289,bRMS
10,0,training,0,K,,1681.5,Training6.png,,training,0,0,1,,,131436,bRMS
11,,,,,,5562,,,,,,,,,137403,instructions
12,1,A,1,K,,3727,f42887_e_127 copy.png,f42887_e_200 copy.png,A,1,0,1,['A'],['B'],141184,bRMS
13,1,A,0,D,,1717.5,f42887_e_025 copy.png,f42887_e_016 copy.png,A,0,0,1,['A'],['B'],143364,bRMS
14,1,A,1,D,,1608.1,f42887_e_064 copy.png,f42887_e_231 copy.png,A,1,0,1,['A'],['B'],145443,bRMS
15,1,A,1,D,,1455.3,f42887_e_252 copy.png,f42887_e_295 copy.png,A,1,0,1,['A'],['B'],147368,bRMS
16,1,A,1,D,,1344.2,f42887_e_064 copy.png,f42887_e_056 copy.png,A,1,0,1,['A'],['B'],149182,bRMS
17,1,A,1,K,,1227.7,f42887_e_298 copy.png,f42887_e_287 copy.png,A,1,0,1,['A'],['B'],150872,bRMS
18,1,A,0,K,,2396.2,f42887_e_156 copy.png,f42887_e_191 copy.png,A,0,0,1,['A'],['B'],153728,bRMS
19,1,A,1,K,,1681.1,f42887_e_127 copy.png,f42887_e_180 copy.png,A,1,0,1,['A'],['B'],155875,bRMS
20,1,A,0,K,,1312.3,f42887_e_058 copy.png,f42887_e_004 copy.png,A,0,0,1,['A'],['B'],157655,bRMS
21,1,A,0,D,,1185.1,f42887_e_252 copy.png,f42887_e_289 copy.png,A,0,0,1,['A'],['B'],159300,bRMS
22,1,A,1,D,,1276.3,f42887_e_121 copy.png,f42887_e_120 copy.png,A,1,0,1,['A'],['B'],161035,bRMS
23,1,A,1,D,,1770,f42887_e_005 copy.png,f42887_e_235 copy.png,A,1,0,1,['A'],['B'],163263,bRMS
24,1,A,0,D,,1763.7,f42887_e_298 copy.png,f42887_e_161 copy.png,A,0,0,1,['A'],['B'],165493,bRMS
25,1,A,0,D,,2347.9,f42887_e_058 copy.png,f42887_e_166 copy.png,A,0,0,1,['A'],['B'],168300,bRMS
26,1,A,0,D,,2817.8,f42887_e_156 copy.png,f42887_e_065 copy.png,A,0,0,1,['A'],['B'],171580,bRMS
27,1,A,0,K,,3863.6,f42887_e_025 copy.png,f42887_e_054 copy.png,A,0,0,1,['A'],['B'],175910,bRMS
28,1,A,0,K,,1974.7,f42887_e_121 copy.png,f42887_e_080 copy.png,A,0,0,1,['A'],['B'],178355,bRMS
29,3,B,0,D,,1599.2,f42887_e_065 copy.png,f42887_e_266 copy.png,B,0,0,1,['B'],['C'],180413,bRMS
30,3,B,1,K,,1566.6,f42887_e_120 copy.png,f42887_e_176 copy.png,B,1,0,1,['B'],['C'],182445,bRMS
31,3,B,1,D,,2586,f42887_e_235 copy.png,f42887_e_021 copy.png,B,1,0,1,['B'],['C'],185490,bRMS
32,3,B,1,K,,1604.6,f42887_e_056 copy.png,f42887_e_067 copy.png,B,1,0,1,['B'],['C'],187562,bRMS
33,3,B,0,K,,1404.9,f42887_e_080 copy.png,f42887_e_179 copy.png,B,0,0,1,['B'],['C'],189429,bRMS
34,3,B,1,D,,1250.9,f42887_e_289 copy.png,f42887_e_291 copy.png,B,1,0,1,['B'],['C'],191141,bRMS
35,3,B,1,K,,1879,f42887_e_231 copy.png,f42887_e_273 copy.png,B,1,0,1,['B'],['C'],193492,bRMS
36,3,B,0,K,,1516.4,f42887_e_161 copy.png,f42887_e_068 copy.png,B,0,0,1,['B'],['C'],195481,bRMS
37,3,B,0,K,,5891.4,f42887_e_295 copy.png,f42887_e_238 copy.png,B,0,0,1,['B'],['C'],201842,bRMS
38,3,B,0,K,,1081,f42887_e_004 copy.png,f42887_e_024 copy.png,B,0,0,1,['B'],['C'],203392,bRMS
39,3,B,1,D,,1029.6,f42887_e_016 copy.png,f42887_e_197 copy.png,B,1,0,1,['B'],['C'],204879,bRMS
40,3,B,0,K,,1039.5,f42887_e_166 copy.png,f42887_e_201 copy.png,B,0,0,1,['B'],['C'],206382,bRMS
41,3,B,1,D,,1789.1,f42887_e_054 copy.png,f42887_e_240 copy.png,B,1,0,1,['B'],['C'],208634,bRMS
42,3,B,0,K,,1492.3,f42887_e_287 copy.png,f42887_e_265 copy.png,B,0,0,1,['B'],['C'],210590,bRMS
43,3,B,1,K,,1722.3,f42887_e_191 copy.png,f42887_e_212 copy.png,B,1,0,1,['B'],['C'],212770,bRMS
44,3,B,0,K,,5565.5,f42887_e_200 copy.png,f42887_e_134 copy.png,B,0,0,1,['B'],['C'],218801,bRMS
45,3,B,0,K,,1083.9,f42887_e_180 copy.png,f42887_e_210 copy.png,B,0,0,1,['B'],['C'],220351,bRMS
46,2,A,0,D,,1336.2,f42887_e_005 copy.png,f42887_e_068 copy.png,A,0,0,1,['A'],['C'],222154,bRMS
47,2,A,1,D,,1848,f42887_e_058 copy.png,f42887_e_197 copy.png,A,1,0,1,['A'],['C'],224472,bRMS
48,2,A,1,K,,5322.8,f42887_e_064 copy.png,f42887_e_134 copy.png,A,1,0,1,['A'],['C'],230251,bRMS
49,2,A,0,D,,2657.4,f42887_e_064 copy.png,f42887_e_212 copy.png,A,0,0,1,['A'],['C'],233375,bRMS
50,2,A,1,D,,1490.7,f42887_e_252 copy.png,f42887_e_238 copy.png,A,1,0,1,['A'],['C'],235335,bRMS
51,2,A,0,K,,1255.8,f42887_e_121 copy.png,f42887_e_021 copy.png,A,0,0,1,['A'],['C'],237049,bRMS
52,2,A,1,K,,1546.5,f42887_e_156 copy.png,f42887_e_240 copy.png,A,1,0,1,['A'],['C'],239064,bRMS
53,2,A,1,D,,1187.8,f42887_e_298 copy.png,f42887_e_067 copy.png,A,1,0,1,['A'],['C'],240715,bRMS
54,2,A,1,K,,1610.1,f42887_e_252 copy.png,f42887_e_069 copy.png,A,1,0,1,['A'],['C'],242796,bRMS
55,2,A,1,D,,1475.6,f42887_e_025 copy.png,f42887_e_201 copy.png,A,1,0,1,['A'],['C'],244740,bRMS
56,2,A,1,D,,1119.3,f42887_e_058 copy.png,f42887_e_273 copy.png,A,1,0,1,['A'],['C'],246321,bRMS
57,2,A,1,D,,3112.3,f42887_e_025 copy.png,f42887_e_210 copy.png,A,1,0,1,['A'],['C'],249896,bRMS
58,2,A,1,K,,1548.1,f42887_e_156 copy.png,f42887_e_266 copy.png,A,1,0,1,['A'],['C'],251908,bRMS
59,2,A,0,K,,1239.8,f42887_e_127 copy.png,f42887_e_179 copy.png,A,0,0,1,['A'],['C'],253606,bRMS
60,2,A,0,D,,1347,f42887_e_121 copy.png,f42887_e_265 copy.png,A,0,0,1,['A'],['C'],255422,bRMS
61,2,A,0,D,,1505.6,f42887_e_298 copy.png,f42887_e_291 copy.png,A,0,0,1,['A'],['C'],257398,bRMS
62,2,A,0,K,,1638.8,f42887_e_127 copy.png,f42887_e_024 copy.png,A,0,0,1,['A'],['C'],259508,bRMS
63,4,B,1,K,,1302.7,f42887_e_166 copy.png,f42887_e_157 copy.png,B,1,0,1,['B'],['D'],261278,bRMS
64,4,B,1,K,,1452.7,f42887_e_295 copy.png,f42887_e_043 copy.png,B,1,0,1,['B'],['D'],263190,bRMS
65,4,B,1,D,,1486.1,f42887_e_180 copy.png,f42887_e_122 copy.png,B,1,0,1,['B'],['D'],265145,bRMS
66,4,B,1,D,,6165.6,f42887_e_231 copy.png,f42887_e_103 copy.png,B,1,0,1,['B'],['D'],271768,bRMS
67,4,B,0,K,,1460.7,f42887_e_016 copy.png,f42887_e_293 copy.png,B,0,0,1,['B'],['D'],273700,bRMS
68,4,B,1,D,,1472.3,f42887_e_056 copy.png,f42887_e_165 copy.png,B,1,0,1,['B'],['D'],275635,bRMS
69,4,B,1,D,,1419.6,f42887_e_289 copy.png,f42887_e_278 copy.png,B,1,0,1,['B'],['D'],277514,bRMS
70,4,B,1,D,,1347.7,f42887_e_004 copy.png,f42887_e_096 copy.png,B,1,0,1,['B'],['D'],279322,bRMS
71,4,B,0,K,,1257.6,f42887_e_054 copy.png,f42887_e_296 copy.png,B,0,0,1,['B'],['D'],281049,bRMS
72,4,B,1,D,,959.5,f42887_e_200 copy.png,f42887_e_241 copy.png,B,1,0,1,['B'],['D'],282469,bRMS
73,4,B,0,K,,1154.2,f42887_e_191 copy.png,f42887_e_028 copy.png,B,0,0,1,['B'],['D'],284088,bRMS
74,4,B,0,K,,1079,f42887_e_235 copy.png,f42887_e_218 copy.png,B,0,0,1,['B'],['D'],285631,bRMS
75,4,B,1,D,,987.4,f42887_e_161 copy.png,f42887_e_237 copy.png,B,1,0,1,['B'],['D'],287074,bRMS
76,4,B,0,K,,1004.6,f42887_e_080 copy.png,f42887_e_189 copy.png,B,0,0,1,['B'],['D'],288537,bRMS
77,4,B,1,D,,1340.6,f42887_e_065 copy.png,f42887_e_152 copy.png,B,1,0,1,['B'],['D'],290337,bRMS
78,4,B,1,D,,1197.5,f42887_e_120 copy.png,f42887_e_038 copy.png,B,1,0,1,['B'],['D'],291998,bRMS
79,4,B,0,K,,1148,f42887_e_287 copy.png,f42887_e_178 copy.png,B,0,0,1,['B'],['D'],293604,bRMS
80,5,C,0,K,,1276.1,f42887_e_176 copy.png,f42887_e_296 copy.png,C,0,0,1,['C'],['D'],295350,bRMS
81,5,C,1,D,,1258.6,f42887_e_212 copy.png,f42887_e_218 copy.png,C,1,0,1,['C'],['D'],297073,bRMS
82,5,C,1,D,,1265.3,f42887_e_134 copy.png,f42887_e_178 copy.png,C,1,0,1,['C'],['D'],298801,bRMS
83,5,C,0,K,,1261.6,f42887_e_291 copy.png,f42887_e_122 copy.png,C,0,0,1,['C'],['D'],300524,bRMS
84,5,C,0,K,,1501.9,f42887_e_266 copy.png,f42887_e_241 copy.png,C,0,0,1,['C'],['D'],302493,bRMS
85,5,C,1,D,,1158.9,f42887_e_238 copy.png,f42887_e_103 copy.png,C,1,0,1,['C'],['D'],304112,bRMS
86,5,C,0,K,,1166.2,f42887_e_069 copy.png,f42887_e_028 copy.png,C,0,0,1,['C'],['D'],305742,bRMS
87,5,C,0,K,,1116.4,f42887_e_201 copy.png,f42887_e_278 copy.png,C,0,0,1,['C'],['D'],307321,bRMS
88,5,C,1,D,,1107.5,f42887_e_067 copy.png,f42887_e_096 copy.png,C,1,0,1,['C'],['D'],308900,bRMS
89,5,C,0,K,,990.5,f42887_e_240 copy.png,f42887_e_152 copy.png,C,0,0,1,['C'],['D'],310349,bRMS
90,5,C,0,K,,1250.1,f42887_e_273 copy.png,f42887_e_165 copy.png,C,0,0,1,['C'],['D'],312069,bRMS
91,5,C,1,D,,1117.7,f42887_e_021 copy.png,f42887_e_157 copy.png,C,1,0,1,['C'],['D'],313647,bRMS
92,5,C,1,D,,1436.1,f42887_e_068 copy.png,f42887_e_293 copy.png,C,1,0,1,['C'],['D'],315549,bRMS
93,5,C,0,K,,1063.9,f42887_e_197 copy.png,f42887_e_189 copy.png,C,0,0,1,['C'],['D'],317070,bRMS
94,5,C,0,K,,1477.4,f42887_e_024 copy.png,f42887_e_043 copy.png,C,0,0,1,['C'],['D'],319010,bRMS
95,5,C,1,D,,2538.9,f42887_e_179 copy.png,f42887_e_237 copy.png,C,1,0,1,['C'],['D'],322015,bRMS
96,5,C,1,D,,1213.3,f42887_e_265 copy.png,f42887_e_038 copy.png,C,1,0,1,['C'],['D'],323699,bRMS
97,6,C,1,D,,1367.8,f42887_e_021 copy.png,f42887_e_290 copy.png,C,1,0,1,['C'],['E'],325527,bRMS
98,6,C,0,K,,1334.9,f42887_e_210 copy.png,f42887_e_146 copy.png,C,0,0,1,['C'],['E'],327332,bRMS
99,6,C,1,D,,1303.2,f42887_e_179 copy.png,f42887_e_051 copy.png,C,1,0,1,['C'],['E'],329103,bRMS
100,6,C,1,D,,1311,f42887_e_291 copy.png,f42887_e_040 copy.png,C,1,0,1,['C'],['E'],330884,bRMS
101,6,C,0,K,,983.9,f42887_e_266 copy.png,f42887_e_099 copy.png,C,0,0,1,['C'],['E'],332331,bRMS
102,6,C,1,D,,1030.2,f42887_e_265 copy.png,f42887_e_000 copy.png,C,1,0,1,['C'],['E'],333824,bRMS
103,6,C,0,K,,1387.9,f42887_e_134 copy.png,f42887_e_213 copy.png,C,0,0,1,['C'],['E'],335679,bRMS
104,6,C,0,K,,1574.4,f42887_e_197 copy.png,f42887_e_285 copy.png,C,0,0,1,['C'],['E'],337709,bRMS
105,6,C,0,K,,1463.4,f42887_e_240 copy.png,f42887_e_209 copy.png,C,0,0,1,['C'],['E'],339639,bRMS
106,6,C,1,D,,1833.7,f42887_e_067 copy.png,f42887_e_051 copy.png,C,1,0,1,['C'],['E'],341943,bRMS
107,6,C,0,K,,1197.6,f42887_e_068 copy.png,f42887_e_209 copy.png,C,0,0,1,['C'],['E'],343604,bRMS
108,6,C,0,K,,1230.8,f42887_e_238 copy.png,f42887_e_146 copy.png,C,0,0,1,['C'],['E'],345299,bRMS
109,6,C,0,K,,857.3,f42887_e_176 copy.png,f42887_e_167 copy.png,C,0,0,1,['C'],['E'],346622,bRMS
110,6,C,0,K,,1070.8,f42887_e_201 copy.png,f42887_e_215 copy.png,C,0,0,1,['C'],['E'],348151,bRMS
111,6,C,1,D,,1271.7,f42887_e_212 copy.png,f42887_e_169 copy.png,C,1,0,1,['C'],['E'],349885,bRMS
112,6,C,0,K,,1214.9,f42887_e_069 copy.png,f42887_e_085 copy.png,C,0,0,1,['C'],['E'],351571,bRMS
113,6,C,1,D,,1278,f42887_e_273 copy.png,f42887_e_145 copy.png,C,1,0,1,['C'],['E'],353313,bRMS
114,6,C,1,D,,1314.2,f42887_e_024 copy.png,f42887_e_044 copy.png,C,1,0,1,['C'],['E'],355090,bRMS
115,7,D,0,K,,1845.2,f42887_e_096 copy.png,f42887_e_051 copy.png,D,0,0,1,['D'],['E'],357398,bRMS
116,7,D,0,K,,1404.9,f42887_e_293 copy.png,f42887_e_209 copy.png,D,0,0,1,['D'],['E'],359266,bRMS
117,7,D,0,K,,1226.1,f42887_e_157 copy.png,f42887_e_169 copy.png,D,0,0,1,['D'],['E'],360952,bRMS
118,7,D,1,D,,1297.4,f42887_e_043 copy.png,f42887_e_285 copy.png,D,1,0,1,['D'],['E'],362711,bRMS
119,7,D,0,K,,1791.8,f42887_e_237 copy.png,f42887_e_040 copy.png,D,0,0,1,['D'],['E'],364969,bRMS
120,7,D,0,K,,1127,f42887_e_122 copy.png,f42887_e_146 copy.png,D,0,0,1,['D'],['E'],366556,bRMS
121,7,D,0,K,,1123.9,f42887_e_165 copy.png,f42887_e_145 copy.png,D,0,0,1,['D'],['E'],368146,bRMS
122,7,D,0,K,,1255.9,f42887_e_241 copy.png,f42887_e_290 copy.png,D,0,0,1,['D'],['E'],369860,bRMS
123,7,D,1,D,,1184.9,f42887_e_189 copy.png,f42887_e_209 copy.png,D,1,0,1,['D'],['E'],371515,bRMS
124,7,D,1,D,,1339.2,f42887_e_038 copy.png,f42887_e_213 copy.png,D,1,0,1,['D'],['E'],373316,bRMS
125,7,D,1,D,,1458.9,f42887_e_218 copy.png,f42887_e_146 copy.png,D,1,0,1,['D'],['E'],375245,bRMS
126,7,D,1,D,,1212.1,f42887_e_103 copy.png,f42887_e_051 copy.png,D,1,0,1,['D'],['E'],376931,bRMS
127,7,D,0,K,,1255,f42887_e_152 copy.png,f42887_e_085 copy.png,D,0,0,1,['D'],['E'],378646,bRMS
128,7,D,0,K,,1111.4,f42887_e_178 copy.png,f42887_e_099 copy.png,D,0,0,1,['D'],['E'],380216,bRMS
129,7,D,0,K,,1189.2,f42887_e_296 copy.png,f42887_e_044 copy.png,D,0,0,1,['D'],['E'],381875,bRMS
130,7,D,1,D,,1014.1,f42887_e_028 copy.png,f42887_e_215 copy.png,D,1,0,1,['D'],['E'],383353,bRMS
131,7,D,0,K,,1064.8,f42887_e_278 copy.png,f42887_e_000 copy.png,D,0,0,1,['D'],['E'],384885,bRMS
132,,,,,,4686,,,,,,,,,389979,instructions
133,,,,,"{""Q0"":""Man"",""Q1"":""Right"",""Q2"":""No"",""Q3"":""No""}",24600,,,,,,,,,414580,survey-multi-choice
134,,,,,"{""Q0"":3,""Q1"":3}",10989,,,,,,,,,425569,survey-likert
135,,,,,"{""Q0"":2}",14052,,,,,,,,,439621,survey-likert
136,,,,,,18355,,,,,,,,,457976,instructions
0,,,,,,122492,,,,,,,,,122494,instructions
1,0,training,1,K,,2097.8,Training4.png,,training,1,0,1,,,124786,bRMS
2,0,training,1,D,,2069.3,Training5.png,,training,1,0,1,,,127369,bRMS
3,0,training,0,K,,1095.3,Training10.png,,training,0,0,1,,,128986,bRMS
4,0,training,0,K,,1349.8,Training2.png,,training,0,0,1,,,130823,bRMS
5,0,training,0,K,,1418.3,Training9.png,,training,0,0,1,,,132738,bRMS
6,0,training,1,D,,1962.4,Training1.png,,training,1,0,1,,,135223,bRMS
7,0,training,1,D,,1574.8,Training3.png,,training,1,0,1,,,137308,bRMS
8,0,training,1,D,,1841.3,Training7.png,,training,1,0,1,,,139644,bRMS
9,0,training,1,D,,1856.2,Training6.png,,training,1,0,1,,,142029,bRMS
10,0,training,0,K,,2098,Training8.png,,training,0,0,1,,,144631,bRMS
11,,,,,,7823,,,,,,,,,152868,instructions
12,1,A,1,K,,1666.4,f42887_e_064 copy.png,f42887_e_056 copy.png,A,1,0,1,['A'],['B'],154648,bRMS
13,1,A,1,D,,1304.1,f42887_e_058 copy.png,f42887_e_287 copy.png,A,1,0,1,['A'],['B'],156435,bRMS
14,1,A,1,K,,1268.8,f42887_e_005 copy.png,f42887_e_295 copy.png,A,1,0,1,['A'],['B'],158217,bRMS
15,1,A,1,K,,2016.4,f42887_e_025 copy.png,f42887_e_016 copy.png,A,1,0,1,['A'],['B'],160719,bRMS
16,1,A,1,D,,1572.9,f42887_e_156 copy.png,f42887_e_200 copy.png,A,1,0,1,['A'],['B'],162820,bRMS
17,1,A,1,K,,1446.1,f42887_e_058 copy.png,f42887_e_235 copy.png,A,1,0,1,['A'],['B'],164784,bRMS
18,1,A,1,D,,1230.3,f42887_e_298 copy.png,f42887_e_120 copy.png,A,1,0,1,['A'],['B'],166499,bRMS
19,1,A,0,K,,1413.6,f42887_e_121 copy.png,f42887_e_054 copy.png,A,0,0,1,['A'],['B'],168421,bRMS
20,1,A,1,D,,1116.7,f42887_e_156 copy.png,f42887_e_289 copy.png,A,1,0,1,['A'],['B'],170023,bRMS
21,1,A,1,D,,1787.8,f42887_e_064 copy.png,f42887_e_180 copy.png,A,1,0,1,['A'],['B'],172292,bRMS
22,1,A,0,K,,2226.5,f42887_e_025 copy.png,f42887_e_065 copy.png,A,0,0,1,['A'],['B'],175024,bRMS
23,1,A,0,K,,2265.5,f42887_e_252 copy.png,f42887_e_191 copy.png,A,0,0,1,['A'],['B'],177776,bRMS
24,1,A,1,K,,2443.9,f42887_e_127 copy.png,f42887_e_161 copy.png,A,1,0,1,['A'],['B'],180709,bRMS
25,1,A,1,D,,1458.3,f42887_e_298 copy.png,f42887_e_004 copy.png,A,1,0,1,['A'],['B'],182676,bRMS
26,1,A,0,K,,2290.1,f42887_e_121 copy.png,f42887_e_080 copy.png,A,0,0,1,['A'],['B'],185463,bRMS
27,1,A,0,K,,1855.6,f42887_e_252 copy.png,f42887_e_231 copy.png,A,0,0,1,['A'],['B'],187842,bRMS
28,1,A,1,K,,2181,f42887_e_127 copy.png,f42887_e_166 copy.png,A,1,0,1,['A'],['B'],190526,bRMS
29,3,B,0,K,,1965.4,f42887_e_065 copy.png,f42887_e_273 copy.png,B,0,0,1,['B'],['C'],192980,bRMS
30,3,B,0,K,,2094.9,f42887_e_235 copy.png,f42887_e_197 copy.png,B,0,0,1,['B'],['C'],195568,bRMS
31,3,B,0,K,,3755.5,f42887_e_200 copy.png,f42887_e_291 copy.png,B,0,0,1,['B'],['C'],199831,bRMS
32,3,B,1,K,,4125,f42887_e_166 copy.png,f42887_e_212 copy.png,B,1,0,1,['B'],['C'],204468,bRMS
33,3,B,1,K,,2389.3,f42887_e_231 copy.png,f42887_e_238 copy.png,B,1,0,1,['B'],['C'],207368,bRMS
34,3,B,0,K,,6689,f42887_e_180 copy.png,f42887_e_068 copy.png,B,0,0,1,['B'],['C'],214532,bRMS
35,3,B,0,D,,2463,f42887_e_004 copy.png,f42887_e_067 copy.png,B,0,0,1,['B'],['C'],217490,bRMS
36,3,B,0,K,,3650.1,f42887_e_056 copy.png,f42887_e_240 copy.png,B,0,0,1,['B'],['C'],221658,bRMS
37,3,B,1,K,,3804.7,f42887_e_287 copy.png,f42887_e_201 copy.png,B,1,0,1,['B'],['C'],225976,bRMS
38,3,B,1,-1,,-1,f42887_e_295 copy.png,f42887_e_266 copy.png,B,1,0,1,['B'],['C'],236431,bRMS
39,3,B,1,-1,,-1,f42887_e_191 copy.png,f42887_e_024 copy.png,B,1,0,1,['B'],['C'],246885,bRMS
40,3,B,1,K,,22329.4,f42887_e_295 copy.png,f42887_e_266 copy.png,B,1,0,1,['B'],['C'],248804,bRMS
41,3,B,1,D,,13550.5,f42887_e_191 copy.png,f42887_e_024 copy.png,B,1,0,1,['B'],['C'],250484,bRMS
42,3,B,1,D,,3144.3,f42887_e_016 copy.png,f42887_e_134 copy.png,B,1,0,1,['B'],['C'],252462,bRMS
43,3,B,1,D,,4187.9,f42887_e_120 copy.png,f42887_e_265 copy.png,B,1,0,1,['B'],['C'],255182,bRMS
44,3,B,0,D,,7253.8,f42887_e_080 copy.png,f42887_e_176 copy.png,B,0,0,1,['B'],['C'],260227,bRMS
45,3,B,0,D,,7792.6,f42887_e_289 copy.png,f42887_e_210 copy.png,B,0,0,1,['B'],['C'],263491,bRMS
46,3,B,1,D,,5419.9,f42887_e_054 copy.png,f42887_e_069 copy.png,B,1,0,1,['B'],['C'],266143,bRMS
47,2,A,0,D,,4942.1,f42887_e_025 copy.png,f42887_e_212 copy.png,A,0,0,1,['A'],['C'],268915,bRMS
48,2,A,0,D,,7085.4,f42887_e_064 copy.png,f42887_e_068 copy.png,A,0,0,1,['A'],['C'],273746,bRMS
49,2,A,0,D,,6920.2,f42887_e_025 copy.png,f42887_e_176 copy.png,A,0,0,1,['A'],['C'],276340,bRMS
50,2,A,0,D,,5061.2,f42887_e_127 copy.png,f42887_e_238 copy.png,A,0,0,1,['A'],['C'],279291,bRMS
51,2,A,0,K,,4752.9,f42887_e_058 copy.png,f42887_e_021 copy.png,A,0,0,1,['A'],['C'],281631,bRMS
52,2,A,0,K,,3486.3,f42887_e_252 copy.png,f42887_e_291 copy.png,A,0,0,1,['A'],['C'],283303,bRMS
53,2,A,0,D,,3138.1,f42887_e_058 copy.png,f42887_e_024 copy.png,A,0,0,1,['A'],['C'],285275,bRMS
54,2,A,1,D,,3104.6,f42887_e_298 copy.png,f42887_e_069 copy.png,A,1,0,1,['A'],['C'],286941,bRMS
55,2,A,1,K,,2644.5,f42887_e_298 copy.png,f42887_e_273 copy.png,A,1,0,1,['A'],['C'],288423,bRMS
56,2,A,0,D,,2701.8,f42887_e_121 copy.png,f42887_e_197 copy.png,A,0,0,1,['A'],['C'],290136,bRMS
57,2,A,1,K,,2998.4,f42887_e_064 copy.png,f42887_e_210 copy.png,A,1,0,1,['A'],['C'],291911,bRMS
58,2,A,0,K,,1966.7,f42887_e_127 copy.png,f42887_e_134 copy.png,A,0,0,1,['A'],['C'],292597,bRMS
59,2,A,0,K,,2078.3,f42887_e_156 copy.png,f42887_e_179 copy.png,A,0,0,1,['A'],['C'],294517,bRMS
60,2,A,0,K,,3361,f42887_e_156 copy.png,f42887_e_067 copy.png,A,0,0,1,['A'],['C'],296468,bRMS
61,2,A,0,D,,3216.8,f42887_e_005 copy.png,f42887_e_265 copy.png,A,0,0,1,['A'],['C'],298263,bRMS
62,2,A,1,D,,3310.2,f42887_e_252 copy.png,f42887_e_240 copy.png,A,1,0,1,['A'],['C'],300265,bRMS
63,2,A,1,K,,3011.7,f42887_e_121 copy.png,f42887_e_201 copy.png,A,1,0,1,['A'],['C'],301784,bRMS
64,4,B,0,D,,3022.2,f42887_e_191 copy.png,f42887_e_189 copy.png,B,0,0,1,['B'],['D'],303807,bRMS
65,4,B,1,K,,2931,f42887_e_166 copy.png,f42887_e_028 copy.png,B,1,0,1,['B'],['D'],305200,bRMS
66,4,B,0,D,,2222.8,f42887_e_004 copy.png,f42887_e_103 copy.png,B,0,0,1,['B'],['D'],306568,bRMS
67,4,B,1,K,,2453.3,f42887_e_289 copy.png,f42887_e_296 copy.png,B,1,0,1,['B'],['D'],308157,bRMS
68,4,B,0,K,,2998.5,f42887_e_287 copy.png,f42887_e_043 copy.png,B,0,0,1,['B'],['D'],310106,bRMS
69,4,B,0,K,,3110.8,f42887_e_054 copy.png,f42887_e_152 copy.png,B,0,0,1,['B'],['D'],311765,bRMS
70,4,B,0,K,,2711.3,f42887_e_180 copy.png,f42887_e_038 copy.png,B,0,0,1,['B'],['D'],313342,bRMS
71,4,B,0,D,,2958.2,f42887_e_231 copy.png,f42887_e_165 copy.png,B,0,0,1,['B'],['D'],315212,bRMS
72,4,B,1,D,,2800.6,f42887_e_295 copy.png,f42887_e_096 copy.png,B,1,0,1,['B'],['D'],316631,bRMS
73,4,B,1,D,,2265.9,f42887_e_016 copy.png,f42887_e_218 copy.png,B,1,0,1,['B'],['D'],318027,bRMS
74,4,B,1,D,,2098,f42887_e_080 copy.png,f42887_e_122 copy.png,B,1,0,1,['B'],['D'],319237,bRMS
75,4,B,1,D,,2365.6,f42887_e_065 copy.png,f42887_e_178 copy.png,B,1,0,1,['B'],['D'],320880,bRMS
76,4,B,1,D,,2490.8,f42887_e_200 copy.png,f42887_e_241 copy.png,B,1,0,1,['B'],['D'],322238,bRMS
77,4,B,1,K,,2622.4,f42887_e_120 copy.png,f42887_e_237 copy.png,B,1,0,1,['B'],['D'],323995,bRMS
78,4,B,0,K,,2906.6,f42887_e_056 copy.png,f42887_e_278 copy.png,B,0,0,1,['B'],['D'],325630,bRMS
79,4,B,0,K,,2652.6,f42887_e_161 copy.png,f42887_e_157 copy.png,B,0,0,1,['B'],['D'],327132,bRMS
80,4,B,0,D,,2822.2,f42887_e_235 copy.png,f42887_e_293 copy.png,B,0,0,1,['B'],['D'],328963,bRMS
81,5,C,1,K,,2959.6,f42887_e_134 copy.png,f42887_e_241 copy.png,C,1,0,1,['C'],['D'],330568,bRMS
82,5,C,0,K,,2444.1,f42887_e_273 copy.png,f42887_e_189 copy.png,C,0,0,1,['C'],['D'],331931,bRMS
83,5,C,0,D,,2228.2,f42887_e_069 copy.png,f42887_e_293 copy.png,C,0,0,1,['C'],['D'],333292,bRMS
84,5,C,1,D,,2622.8,f42887_e_197 copy.png,f42887_e_028 copy.png,C,1,0,1,['C'],['D'],335036,bRMS
85,5,C,1,K,,2685.7,f42887_e_024 copy.png,f42887_e_278 copy.png,C,1,0,1,['C'],['D'],336504,bRMS
86,5,C,0,K,,2472.8,f42887_e_201 copy.png,f42887_e_165 copy.png,C,0,0,1,['C'],['D'],338001,bRMS
87,5,C,0,D,,2667.6,f42887_e_021 copy.png,f42887_e_237 copy.png,C,0,0,1,['C'],['D'],339671,bRMS
88,5,C,1,D,,2682.1,f42887_e_212 copy.png,f42887_e_038 copy.png,C,1,0,1,['C'],['D'],341166,bRMS
89,5,C,1,K,,2433.6,f42887_e_179 copy.png,f42887_e_296 copy.png,C,1,0,1,['C'],['D'],342618,bRMS
90,5,C,0,D,,2600.7,f42887_e_068 copy.png,f42887_e_152 copy.png,C,0,0,1,['C'],['D'],344257,bRMS
91,5,C,1,D,,2692.7,f42887_e_210 copy.png,f42887_e_096 copy.png,C,1,0,1,['C'],['D'],345805,bRMS
92,5,C,1,D,,2763.9,f42887_e_176 copy.png,f42887_e_122 copy.png,C,1,0,1,['C'],['D'],347552,bRMS
93,5,C,0,K,,1149.5,f42887_e_265 copy.png,f42887_e_043 copy.png,C,0,0,1,['C'],['D'],349207,bRMS
94,5,C,1,D,,995.6,f42887_e_240 copy.png,f42887_e_218 copy.png,C,1,0,1,['C'],['D'],350709,bRMS
95,5,C,0,K,,1405.5,f42887_e_067 copy.png,f42887_e_157 copy.png,C,0,0,1,['C'],['D'],352598,bRMS
96,5,C,1,D,,1094.7,f42887_e_291 copy.png,f42887_e_103 copy.png,C,1,0,1,['C'],['D'],354203,bRMS
97,6,C,0,K,,1190.1,f42887_e_212 copy.png,f42887_e_000 copy.png,C,0,0,1,['C'],['E'],355879,bRMS
98,6,C,1,D,,878.4,f42887_e_067 copy.png,f42887_e_146 copy.png,C,1,0,1,['C'],['E'],357273,bRMS
99,6,C,1,D,,953.0999999,f42887_e_068 copy.png,f42887_e_146 copy.png,C,1,0,1,['C'],['E'],358718,bRMS
100,6,C,0,K,,980.3,f42887_e_265 copy.png,f42887_e_051 copy.png,C,0,0,1,['C'],['E'],360207,bRMS
101,6,C,1,D,,1194.8,f42887_e_273 copy.png,f42887_e_215 copy.png,C,1,0,1,['C'],['E'],361892,bRMS
102,6,C,1,D,,857.2,f42887_e_210 copy.png,f42887_e_285 copy.png,C,1,0,1,['C'],['E'],363242,bRMS
103,6,C,1,D,,1076.6,f42887_e_021 copy.png,f42887_e_167 copy.png,C,1,0,1,['C'],['E'],364845,bRMS
104,6,C,0,K,,1163.7,f42887_e_024 copy.png,f42887_e_290 copy.png,C,0,0,1,['C'],['E'],366511,bRMS
105,6,C,0,K,,1015.5,f42887_e_197 copy.png,f42887_e_044 copy.png,C,0,0,1,['C'],['E'],368034,bRMS
106,6,C,1,D,,959.9,f42887_e_266 copy.png,f42887_e_145 copy.png,C,1,0,1,['C'],['E'],369479,bRMS
107,6,C,1,D,,816.9,f42887_e_134 copy.png,f42887_e_213 copy.png,C,1,0,1,['C'],['E'],370809,bRMS
108,6,C,0,K,,2356,f42887_e_176 copy.png,f42887_e_099 copy.png,C,0,0,1,['C'],['E'],373666,bRMS
109,6,C,0,K,,324.4,f42887_e_238 copy.png,f42887_e_209 copy.png,C,0,0,1,['C'],['E'],374485,bRMS
110,6,C,1,D,,3257.3,f42887_e_179 copy.png,f42887_e_040 copy.png,C,1,0,1,['C'],['E'],378227,bRMS
111,6,C,1,D,,1262.5,f42887_e_240 copy.png,f42887_e_209 copy.png,C,1,0,1,['C'],['E'],379981,bRMS
112,6,C,1,D,,929.7,f42887_e_291 copy.png,f42887_e_169 copy.png,C,1,0,1,['C'],['E'],381412,bRMS
113,6,C,0,K,,1134.1,f42887_e_201 copy.png,f42887_e_051 copy.png,C,0,0,1,['C'],['E'],383035,bRMS
114,6,C,1,D,,1181.7,f42887_e_069 copy.png,f42887_e_085 copy.png,C,1,0,1,['C'],['E'],384705,bRMS
115,7,D,0,K,,1447,f42887_e_038 copy.png,f42887_e_215 copy.png,D,0,0,1,['D'],['E'],386675,bRMS
116,7,D,0,K,,1131.7,f42887_e_293 copy.png,f42887_e_167 copy.png,D,0,0,1,['D'],['E'],388304,bRMS
117,7,D,0,K,,860.0999999,f42887_e_178 copy.png,f42887_e_099 copy.png,D,0,0,1,['D'],['E'],389674,bRMS
118,7,D,1,D,,1186.5,f42887_e_218 copy.png,f42887_e_285 copy.png,D,1,0,1,['D'],['E'],391358,bRMS
119,7,D,1,D,,1097,f42887_e_237 copy.png,f42887_e_051 copy.png,D,1,0,1,['D'],['E'],392952,bRMS
120,7,D,1,D,,1073.3,f42887_e_165 copy.png,f42887_e_209 copy.png,D,1,0,1,['D'],['E'],394509,bRMS
121,7,D,0,K,,995.3,f42887_e_278 copy.png,f42887_e_000 copy.png,D,0,0,1,['D'],['E'],396001,bRMS
122,7,D,1,D,,1032.3,f42887_e_043 copy.png,f42887_e_085 copy.png,D,1,0,1,['D'],['E'],397559,bRMS
123,7,D,0,K,,875.7,f42887_e_296 copy.png,f42887_e_213 copy.png,D,0,0,1,['D'],['E'],398924,bRMS
124,7,D,1,D,,1005.6,f42887_e_241 copy.png,f42887_e_169 copy.png,D,1,0,1,['D'],['E'],400427,bRMS
125,7,D,0,K,,830.4,f42887_e_189 copy.png,f42887_e_209 copy.png,D,0,0,1,['D'],['E'],401745,bRMS
126,7,D,0,K,,1049.1,f42887_e_157 copy.png,f42887_e_146 copy.png,D,0,0,1,['D'],['E'],403299,bRMS
127,7,D,1,D,,879.9,f42887_e_028 copy.png,f42887_e_290 copy.png,D,1,0,1,['D'],['E'],404667,bRMS
128,7,D,0,K,,1053.4,f42887_e_152 copy.png,f42887_e_044 copy.png,D,0,0,1,['D'],['E'],406212,bRMS
129,7,D,0,K,,1164.2,f42887_e_096 copy.png,f42887_e_145 copy.png,D,0,0,1,['D'],['E'],407861,bRMS
130,7,D,0,K,,1115.1,f42887_e_122 copy.png,f42887_e_051 copy.png,D,0,0,1,['D'],['E'],409470,bRMS
131,7,D,1,D,,1100.2,f42887_e_103 copy.png,f42887_e_040 copy.png,D,1,0,1,['D'],['E'],411055,bRMS
132,,,,,,3547,,,,,,,,,415016,instructions
133,,,,,"{""Q0"":""Woman"",""Q1"":""Right"",""Q2"":""Yes"",""Q3"":""No""}",50722,,,,,,,,,465763,survey-multi-choice
134,,,,,"{""Q0"":3,""Q1"":3}",10544,,,,,,,,,476310,survey-likert
135,,,,,"{""Q0"":2}",9708,,,,,,,,,486020,survey-likert
136,,,,,,9106,,,,,,,,,495126,instructions
0,,,,,,63291,,,,,,,,,63292,instructions
1,0,training,0,K,,2202.6,Training5.png,,training,0,0,1,,,65663,bRMS
2,0,training,0,K,,1763.6,Training4.png,,training,0,0,1,,,67934,bRMS
3,0,training,1,D,,7231.8,Training9.png,,training,1,0,1,,,75689,bRMS
4,0,training,0,K,,3575.4,Training8.png,,training,0,0,1,,,79789,bRMS
5,0,training,0,K,,2254.4,Training1.png,,training,0,0,1,,,82545,bRMS
6,0,training,0,K,,1377.2,Training2.png,,training,0,0,1,,,84434,bRMS
7,0,training,1,D,,1478.2,Training7.png,,training,1,0,1,,,86425,bRMS
8,0,training,1,D,,1525.4,Training3.png,,training,1,0,1,,,88451,bRMS
9,0,training,1,D,,1067.8,Training6.png,,training,1,0,1,,,90027,bRMS
10,0,training,0,K,,1292.6,Training10.png,,training,0,0,1,,,91826,bRMS
11,,,,,,10696,,,,,,,,,102933,instructions
12,1,A,1,D,,2214.9,f42887_e_064 copy.png,f42887_e_289 copy.png,A,1,0,1,['A'],['B'],105250,bRMS
13,1,A,0,K,,1286.9,f42887_e_156 copy.png,f42887_e_231 copy.png,A,0,0,1,['A'],['B'],107042,bRMS
14,1,A,0,D,,1246,f42887_e_127 copy.png,f42887_e_295 copy.png,A,0,0,1,['A'],['B'],108792,bRMS
15,1,A,1,D,,1113.7,f42887_e_298 copy.png,f42887_e_161 copy.png,A,1,0,1,['A'],['B'],110425,bRMS
16,1,A,0,K,,1014.7,f42887_e_252 copy.png,f42887_e_180 copy.png,A,0,0,1,['A'],['B'],112038,bRMS
17,1,A,1,D,,951.3,f42887_e_025 copy.png,f42887_e_120 copy.png,A,1,0,1,['A'],['B'],113479,bRMS
18,1,A,0,K,,1353.2,f42887_e_005 copy.png,f42887_e_065 copy.png,A,0,0,1,['A'],['B'],115338,bRMS
19,1,A,0,K,,1115.8,f42887_e_058 copy.png,f42887_e_235 copy.png,A,0,0,1,['A'],['B'],116982,bRMS
20,1,A,1,D,,944.3000002,f42887_e_064 copy.png,f42887_e_191 copy.png,A,1,0,1,['A'],['B'],118427,bRMS
21,1,A,0,K,,850.3999999,f42887_e_121 copy.png,f42887_e_004 copy.png,A,0,0,1,['A'],['B'],119809,bRMS
22,1,A,0,K,,1149.8,f42887_e_156 copy.png,f42887_e_166 copy.png,A,0,0,1,['A'],['B'],121482,bRMS
23,1,A,0,D,,1899.3,f42887_e_121 copy.png,f42887_e_016 copy.png,A,0,0,1,['A'],['B'],123886,bRMS
24,1,A,1,K,,1608.7,f42887_e_127 copy.png,f42887_e_054 copy.png,A,1,0,1,['A'],['B'],126019,bRMS
25,1,A,1,D,,1349.3,f42887_e_298 copy.png,f42887_e_080 copy.png,A,1,0,1,['A'],['B'],127883,bRMS
26,1,A,1,K,,942,f42887_e_058 copy.png,f42887_e_287 copy.png,A,1,0,1,['A'],['B'],129330,bRMS
27,1,A,1,D,,960.3,f42887_e_025 copy.png,f42887_e_200 copy.png,A,1,0,1,['A'],['B'],130779,bRMS
28,1,A,0,K,,971.1000001,f42887_e_252 copy.png,f42887_e_056 copy.png,A,0,0,1,['A'],['B'],132264,bRMS
29,3,B,1,D,,1189.1,f42887_e_056 copy.png,f42887_e_024 copy.png,B,1,0,1,['B'],['C'],133962,bRMS
30,3,B,1,K,,1783.7,f42887_e_191 copy.png,f42887_e_265 copy.png,B,1,0,1,['B'],['C'],136318,bRMS
31,3,B,1,K,,1414,f42887_e_287 copy.png,f42887_e_068 copy.png,B,1,0,1,['B'],['C'],138243,bRMS
32,3,B,1,D,,1427.4,f42887_e_054 copy.png,f42887_e_266 copy.png,B,1,0,1,['B'],['C'],140194,bRMS
33,3,B,1,D,,1095.7,f42887_e_016 copy.png,f42887_e_273 copy.png,B,1,0,1,['B'],['C'],141816,bRMS
34,3,B,1,D,,1245.5,f42887_e_180 copy.png,f42887_e_069 copy.png,B,1,0,1,['B'],['C'],143563,bRMS
35,3,B,1,K,,1125.8,f42887_e_120 copy.png,f42887_e_212 copy.png,B,1,0,1,['B'],['C'],145181,bRMS
36,3,B,0,D,,1568.7,f42887_e_161 copy.png,f42887_e_134 copy.png,B,0,0,1,['B'],['C'],147273,bRMS
37,3,B,0,K,,1549.9,f42887_e_004 copy.png,f42887_e_240 copy.png,B,0,0,1,['B'],['C'],149327,bRMS
38,3,B,1,D,,1117.5,f42887_e_289 copy.png,f42887_e_067 copy.png,B,1,0,1,['B'],['C'],151009,bRMS
39,3,B,1,D,,1770.7,f42887_e_080 copy.png,f42887_e_210 copy.png,B,1,0,1,['B'],['C'],153297,bRMS
40,3,B,0,D,,2675.7,f42887_e_235 copy.png,f42887_e_201 copy.png,B,0,0,1,['B'],['C'],156474,bRMS
41,3,B,0,K,,1817.4,f42887_e_200 copy.png,f42887_e_291 copy.png,B,0,0,1,['B'],['C'],158800,bRMS
42,3,B,1,D,,2102.7,f42887_e_295 copy.png,f42887_e_021 copy.png,B,1,0,1,['B'],['C'],161417,bRMS
43,3,B,0,K,,1209.2,f42887_e_065 copy.png,f42887_e_197 copy.png,B,0,0,1,['B'],['C'],163141,bRMS
44,3,B,0,D,,3175.5,f42887_e_231 copy.png,f42887_e_179 copy.png,B,0,0,1,['B'],['C'],166824,bRMS
45,3,B,1,K,,2181.7,f42887_e_166 copy.png,f42887_e_176 copy.png,B,1,0,1,['B'],['C'],169496,bRMS
46,2,A,1,D,,1054.5,f42887_e_025 copy.png,f42887_e_266 copy.png,A,1,0,1,['A'],['C'],171054,bRMS
47,2,A,0,D,,1471.5,f42887_e_005 copy.png,f42887_e_273 copy.png,A,0,0,1,['A'],['C'],173042,bRMS
48,2,A,1,K,,1287.4,f42887_e_121 copy.png,f42887_e_197 copy.png,A,1,0,1,['A'],['C'],174828,bRMS
49,2,A,0,D,,2304.8,f42887_e_156 copy.png,f42887_e_210 copy.png,A,0,0,1,['A'],['C'],177647,bRMS
50,2,A,0,D,,1921.8,f42887_e_156 copy.png,f42887_e_212 copy.png,A,0,0,1,['A'],['C'],180147,bRMS
51,2,A,0,K,,2097,f42887_e_064 copy.png,f42887_e_176 copy.png,A,0,0,1,['A'],['C'],182754,bRMS
52,2,A,1,D,,1087.8,f42887_e_025 copy.png,f42887_e_179 copy.png,A,1,0,1,['A'],['C'],184441,bRMS
53,2,A,0,K,,1032,f42887_e_127 copy.png,f42887_e_024 copy.png,A,0,0,1,['A'],['C'],185976,bRMS
54,2,A,0,K,,1366.4,f42887_e_252 copy.png,f42887_e_240 copy.png,A,0,0,1,['A'],['C'],187850,bRMS
55,2,A,1,D,,1216.3,f42887_e_121 copy.png,f42887_e_238 copy.png,A,1,0,1,['A'],['C'],189568,bRMS
56,2,A,0,K,,1346.3,f42887_e_058 copy.png,f42887_e_068 copy.png,A,0,0,1,['A'],['C'],191442,bRMS
57,2,A,1,D,,1332.9,f42887_e_252 copy.png,f42887_e_134 copy.png,A,1,0,1,['A'],['C'],193296,bRMS
58,2,A,0,K,,4146.7,f42887_e_127 copy.png,f42887_e_265 copy.png,A,0,0,1,['A'],['C'],197958,bRMS
59,2,A,1,D,,919.4000001,f42887_e_058 copy.png,f42887_e_291 copy.png,A,1,0,1,['A'],['C'],199400,bRMS
60,2,A,0,K,,955.0999999,f42887_e_064 copy.png,f42887_e_021 copy.png,A,0,0,1,['A'],['C'],200857,bRMS
61,2,A,0,K,,2133,f42887_e_298 copy.png,f42887_e_069 copy.png,A,0,0,1,['A'],['C'],203504,bRMS
62,2,A,0,K,,1063.5,f42887_e_298 copy.png,f42887_e_201 copy.png,A,0,0,1,['A'],['C'],205087,bRMS
63,4,B,1,D,,995.9000001,f42887_e_191 copy.png,f42887_e_043 copy.png,B,1,0,1,['B'],['D'],206706,bRMS
64,4,B,0,D,,1231.7,f42887_e_200 copy.png,f42887_e_038 copy.png,B,0,0,1,['B'],['D'],208435,bRMS
65,4,B,0,K,,925.5,f42887_e_235 copy.png,f42887_e_189 copy.png,B,0,0,1,['B'],['D'],209899,bRMS
66,4,B,1,D,,1136.9,f42887_e_080 copy.png,f42887_e_165 copy.png,B,1,0,1,['B'],['D'],211562,bRMS
67,4,B,1,D,,1390.6,f42887_e_287 copy.png,f42887_e_178 copy.png,B,1,0,1,['B'],['D'],213476,bRMS
68,4,B,1,D,,2019.1,f42887_e_120 copy.png,f42887_e_096 copy.png,B,1,0,1,['B'],['D'],216013,bRMS
69,4,B,1,K,,1286,f42887_e_231 copy.png,f42887_e_241 copy.png,B,1,0,1,['B'],['D'],217808,bRMS
70,4,B,0,D,,1547.8,f42887_e_016 copy.png,f42887_e_152 copy.png,B,0,0,1,['B'],['D'],219847,bRMS
71,4,B,1,D,,1553.9,f42887_e_065 copy.png,f42887_e_103 copy.png,B,1,0,1,['B'],['D'],222133,bRMS
72,4,B,1,D,,1052.4,f42887_e_289 copy.png,f42887_e_296 copy.png,B,1,0,1,['B'],['D'],223704,bRMS
73,4,B,1,K,,2039.2,f42887_e_295 copy.png,f42887_e_028 copy.png,B,1,0,1,['B'],['D'],226433,bRMS
74,4,B,0,D,,1712,f42887_e_166 copy.png,f42887_e_237 copy.png,B,0,0,1,['B'],['D'],228643,bRMS
75,4,B,0,D,,2236.9,f42887_e_180 copy.png,f42887_e_122 copy.png,B,0,0,1,['B'],['D'],231382,bRMS
76,4,B,0,K,,2303.5,f42887_e_161 copy.png,f42887_e_293 copy.png,B,0,0,1,['B'],['D'],234201,bRMS
77,4,B,0,D,,1474,f42887_e_004 copy.png,f42887_e_218 copy.png,B,0,0,1,['B'],['D'],236212,bRMS
78,4,B,0,D,,1663.4,f42887_e_054 copy.png,f42887_e_278 copy.png,B,0,0,1,['B'],['D'],238382,bRMS
79,4,B,1,D,,1635.8,f42887_e_056 copy.png,f42887_e_157 copy.png,B,1,0,1,['B'],['D'],240538,bRMS
80,5,C,0,K,,980.3,f42887_e_212 copy.png,f42887_e_296 copy.png,C,0,0,1,['C'],['D'],242028,bRMS
81,5,C,0,D,,1318.2,f42887_e_179 copy.png,f42887_e_293 copy.png,C,0,0,1,['C'],['D'],243869,bRMS
82,5,C,1,D,,1359.9,f42887_e_291 copy.png,f42887_e_122 copy.png,C,1,0,1,['C'],['D'],245757,bRMS
83,5,C,1,D,,3025.4,f42887_e_176 copy.png,f42887_e_103 copy.png,C,1,0,1,['C'],['D'],249300,bRMS
84,5,C,1,D,,1304.2,f42887_e_240 copy.png,f42887_e_152 copy.png,C,1,0,1,['C'],['D'],251110,bRMS
85,5,C,0,D,,1932.9,f42887_e_210 copy.png,f42887_e_189 copy.png,C,0,0,1,['C'],['D'],253555,bRMS
86,5,C,0,D,,1311.7,f42887_e_134 copy.png,f42887_e_178 copy.png,C,0,0,1,['C'],['D'],255369,bRMS
87,5,C,0,D,,7498,f42887_e_069 copy.png,f42887_e_165 copy.png,C,0,0,1,['C'],['D'],263373,bRMS
88,5,C,0,K,,893.8999999,f42887_e_265 copy.png,f42887_e_278 copy.png,C,0,0,1,['C'],['D'],264760,bRMS
89,5,C,0,D,,1161.1,f42887_e_024 copy.png,f42887_e_237 copy.png,C,0,0,1,['C'],['D'],266422,bRMS
90,5,C,1,D,,1001.8,f42887_e_266 copy.png,f42887_e_241 copy.png,C,1,0,1,['C'],['D'],267940,bRMS
91,5,C,0,D,,1313.9,f42887_e_067 copy.png,f42887_e_038 copy.png,C,0,0,1,['C'],['D'],269778,bRMS
92,5,C,0,D,,1600.4,f42887_e_238 copy.png,f42887_e_218 copy.png,C,0,0,1,['C'],['D'],271922,bRMS
93,5,C,0,D,,1748.2,f42887_e_068 copy.png,f42887_e_096 copy.png,C,0,0,1,['C'],['D'],274191,bRMS
94,5,C,0,D,,5832,f42887_e_273 copy.png,f42887_e_157 copy.png,C,0,0,1,['C'],['D'],280670,bRMS
95,5,C,1,D,,997.3999999,f42887_e_201 copy.png,f42887_e_043 copy.png,C,1,0,1,['C'],['D'],282178,bRMS
96,5,C,0,K,,904.1999998,f42887_e_021 copy.png,f42887_e_028 copy.png,C,0,0,1,['C'],['D'],283583,bRMS
97,6,C,1,D,,763.5,f42887_e_210 copy.png,f42887_e_000 copy.png,C,1,0,1,['C'],['E'],284865,bRMS
98,6,C,1,D,,1006,f42887_e_021 copy.png,f42887_e_085 copy.png,C,1,0,1,['C'],['E'],286387,bRMS
99,6,C,1,D,,811.8,f42887_e_176 copy.png,f42887_e_099 copy.png,C,1,0,1,['C'],['E'],287709,bRMS
100,6,C,0,D,,736,f42887_e_291 copy.png,f42887_e_051 copy.png,C,0,0,1,['C'],['E'],288944,bRMS
101,6,C,0,K,,1216.9,f42887_e_265 copy.png,f42887_e_213 copy.png,C,0,0,1,['C'],['E'],290678,bRMS
102,6,C,1,D,,854.7,f42887_e_179 copy.png,f42887_e_051 copy.png,C,1,0,1,['C'],['E'],292050,bRMS
103,6,C,0,K,,1156.5,f42887_e_068 copy.png,f42887_e_167 copy.png,C,0,0,1,['C'],['E'],293860,bRMS
104,6,C,1,D,,1149.5,f42887_e_024 copy.png,f42887_e_209 copy.png,C,1,0,1,['C'],['E'],295532,bRMS
105,6,C,0,K,,797.9000001,f42887_e_067 copy.png,f42887_e_209 copy.png,C,0,0,1,['C'],['E'],296953,bRMS
106,6,C,1,D,,904.8,f42887_e_134 copy.png,f42887_e_044 copy.png,C,1,0,1,['C'],['E'],298373,bRMS
107,6,C,0,K,,1119.3,f42887_e_240 copy.png,f42887_e_169 copy.png,C,0,0,1,['C'],['E'],300003,bRMS
108,6,C,0,K,,1180.1,f42887_e_201 copy.png,f42887_e_215 copy.png,C,0,0,1,['C'],['E'],301688,bRMS
109,6,C,1,D,,1652.3,f42887_e_197 copy.png,f42887_e_146 copy.png,C,1,0,1,['C'],['E'],303848,bRMS
110,6,C,1,D,,1522.7,f42887_e_273 copy.png,f42887_e_285 copy.png,C,1,0,1,['C'],['E'],305878,bRMS
111,6,C,1,D,,1170.2,f42887_e_069 copy.png,f42887_e_145 copy.png,C,1,0,1,['C'],['E'],307566,bRMS
112,6,C,1,D,,984.9000001,f42887_e_238 copy.png,f42887_e_040 copy.png,C,1,0,1,['C'],['E'],309182,bRMS
113,6,C,1,D,,1091.1,f42887_e_266 copy.png,f42887_e_290 copy.png,C,1,0,1,['C'],['E'],310787,bRMS
114,6,C,0,K,,910.8999999,f42887_e_212 copy.png,f42887_e_146 copy.png,C,0,0,1,['C'],['E'],312204,bRMS
115,7,D,1,D,,1001.4,f42887_e_189 copy.png,f42887_e_146 copy.png,D,1,0,1,['D'],['E'],313725,bRMS
116,7,D,1,D,,1129.9,f42887_e_237 copy.png,f42887_e_167 copy.png,D,1,0,1,['D'],['E'],315363,bRMS
117,7,D,0,K,,869.4000001,f42887_e_157 copy.png,f42887_e_209 copy.png,D,0,0,1,['D'],['E'],316747,bRMS
118,7,D,0,K,,1447.3,f42887_e_296 copy.png,f42887_e_044 copy.png,D,0,0,1,['D'],['E'],318691,bRMS
119,7,D,0,K,,3551.9,f42887_e_178 copy.png,f42887_e_040 copy.png,D,0,0,1,['D'],['E'],322770,bRMS
120,7,D,1,D,,926.6999998,f42887_e_165 copy.png,f42887_e_085 copy.png,D,1,0,1,['D'],['E'],324324,bRMS
121,7,D,1,D,,1402.8,f42887_e_152 copy.png,f42887_e_285 copy.png,D,1,0,1,['D'],['E'],326232,bRMS
122,7,D,1,D,,1867.8,f42887_e_038 copy.png,f42887_e_099 copy.png,D,1,0,1,['D'],['E'],328609,bRMS
123,7,D,0,K,,1073.9,f42887_e_218 copy.png,f42887_e_146 copy.png,D,0,0,1,['D'],['E'],330204,bRMS
124,7,D,1,D,,3545.4,f42887_e_043 copy.png,f42887_e_051 copy.png,D,1,0,1,['D'],['E'],334258,bRMS
125,7,D,1,D,,1792.3,f42887_e_293 copy.png,f42887_e_213 copy.png,D,1,0,1,['D'],['E'],336560,bRMS
126,7,D,1,D,,1068.8,f42887_e_028 copy.png,f42887_e_169 copy.png,D,1,0,1,['D'],['E'],338153,bRMS
127,7,D,0,K,,1662.5,f42887_e_122 copy.png,f42887_e_000 copy.png,D,0,0,1,['D'],['E'],340319,bRMS
128,7,D,0,K,,1493.5,f42887_e_103 copy.png,f42887_e_209 copy.png,D,0,0,1,['D'],['E'],342323,bRMS
129,7,D,0,K,,965.1000001,f42887_e_278 copy.png,f42887_e_215 copy.png,D,0,0,1,['D'],['E'],343981,bRMS
130,7,D,1,D,,1135.4,f42887_e_096 copy.png,f42887_e_290 copy.png,D,1,0,1,['D'],['E'],345621,bRMS
131,7,D,0,K,,1227.6,f42887_e_241 copy.png,f42887_e_051 copy.png,D,0,0,1,['D'],['E'],347354,bRMS
132,,,,,,3136,,,,,,,,,350897,instructions
133,,,,,"{""Q0"":""Man"",""Q1"":""Right"",""Q2"":""No"",""Q3"":""No""}",19832,,,,,,,,,370731,survey-multi-choice
134,,,,,"{""Q0"":3,""Q1"":2}",10673,,,,,,,,,381405,survey-likert
135,,,,,"{""Q0"":3}",19805,,,,,,,,,401211,survey-likert
136,,,,,,33895,,,,,,,,,435106,instructions
0,,,,,,93606,,,,,,,,,93608,instructions
1,0,training,1,D,,3105.7,Training9.png,,training,1,0,4,,,97005,bRMS
2,0,training,1,D,,1407,Training2.png,,training,1,0,4,,,99046,bRMS
3,0,training,0,K,,1075.9,Training10.png,,training,0,0,4,,,100733,bRMS
4,0,training,0,K,,1311.9,Training3.png,,training,0,0,4,,,102635,bRMS
5,0,training,1,D,,1544.5,Training1.png,,training,1,0,4,,,104773,bRMS
6,0,training,0,K,,1479.7,Training8.png,,training,0,0,4,,,106863,bRMS
7,0,training,1,D,,1178.3,Training6.png,,training,1,0,4,,,108628,bRMS
8,0,training,0,K,,969.8,Training5.png,,training,0,0,4,,,110206,bRMS
9,0,training,0,K,,1334.5,Training7.png,,training,0,0,4,,,112195,bRMS
10,0,training,0,K,,1530.8,Training4.png,,training,0,0,4,,,114395,bRMS
11,,,,,,2986,,,,,,,,,117787,instructions
12,1,A,0,K,,2056.6,f42887_e_058 copy.png,f42887_e_295 copy.png,A,0,0,4,['A'],['B'],120015,bRMS
13,1,A,0,K,,938.2,f42887_e_298 copy.png,f42887_e_056 copy.png,A,0,0,4,['A'],['B'],121611,bRMS
14,1,A,0,K,,1617.1,f42887_e_156 copy.png,f42887_e_065 copy.png,A,0,0,4,['A'],['B'],123844,bRMS
15,1,A,0,K,,1434,f42887_e_252 copy.png,f42887_e_161 copy.png,A,0,0,4,['A'],['B'],125891,bRMS
16,1,A,0,K,,1458.5,f42887_e_005 copy.png,f42887_e_054 copy.png,A,0,0,4,['A'],['B'],128022,bRMS
17,1,A,1,D,,1332.4,f42887_e_025 copy.png,f42887_e_235 copy.png,A,1,0,4,['A'],['B'],129955,bRMS
18,1,A,1,D,,1842.6,f42887_e_064 copy.png,f42887_e_004 copy.png,A,1,0,4,['A'],['B'],132407,bRMS
19,1,A,0,K,,2111.1,f42887_e_121 copy.png,f42887_e_080 copy.png,A,0,0,4,['A'],['B'],135111,bRMS
20,1,A,1,D,,1853.4,f42887_e_058 copy.png,f42887_e_016 copy.png,A,1,0,4,['A'],['B'],137590,bRMS
21,1,A,0,D,,2107.9,f42887_e_121 copy.png,f42887_e_120 copy.png,A,0,0,4,['A'],['B'],140321,bRMS
22,1,A,0,K,,1188.6,f42887_e_298 copy.png,f42887_e_287 copy.png,A,0,0,4,['A'],['B'],142137,bRMS
23,1,A,0,K,,1677.2,f42887_e_156 copy.png,f42887_e_180 copy.png,A,0,0,4,['A'],['B'],144418,bRMS
24,1,A,0,K,,1644.4,f42887_e_025 copy.png,f42887_e_200 copy.png,A,0,0,4,['A'],['B'],146678,bRMS
25,1,A,1,K,,1361.9,f42887_e_064 copy.png,f42887_e_166 copy.png,A,1,0,4,['A'],['B'],148644,bRMS
26,1,A,1,D,,1136.1,f42887_e_252 copy.png,f42887_e_289 copy.png,A,1,0,4,['A'],['B'],150405,bRMS
27,1,A,0,D,,1635.3,f42887_e_127 copy.png,f42887_e_231 copy.png,A,0,0,4,['A'],['B'],152689,bRMS
28,1,A,0,D,,1448.5,f42887_e_127 copy.png,f42887_e_191 copy.png,A,0,0,4,['A'],['B'],154776,bRMS
29,3,B,1,K,,1589,f42887_e_054 copy.png,f42887_e_291 copy.png,B,1,0,4,['B'],['C'],156959,bRMS
30,3,B,1,D,,2226,f42887_e_065 copy.png,f42887_e_021 copy.png,B,1,0,4,['B'],['C'],159808,bRMS
31,3,B,0,K,,1645.8,f42887_e_056 copy.png,f42887_e_201 copy.png,B,0,0,4,['B'],['C'],162036,bRMS
32,3,B,0,D,,1665.2,f42887_e_191 copy.png,f42887_e_024 copy.png,B,0,0,4,['B'],['C'],164280,bRMS
33,3,B,0,K,,2489.5,f42887_e_166 copy.png,f42887_e_265 copy.png,B,0,0,4,['B'],['C'],167392,bRMS
34,3,B,0,D,,1683.4,f42887_e_180 copy.png,f42887_e_068 copy.png,B,0,0,4,['B'],['C'],169751,bRMS
35,3,B,0,K,,2665,f42887_e_200 copy.png,f42887_e_266 copy.png,B,0,0,4,['B'],['C'],173069,bRMS
36,3,B,1,D,,4489,f42887_e_004 copy.png,f42887_e_212 copy.png,B,1,0,4,['B'],['C'],178156,bRMS
37,3,B,0,D,,1573.7,f42887_e_231 copy.png,f42887_e_176 copy.png,B,0,0,4,['B'],['C'],180335,bRMS
38,3,B,0,K,,2169.1,f42887_e_295 copy.png,f42887_e_067 copy.png,B,0,0,4,['B'],['C'],183125,bRMS
39,3,B,0,D,,1767.8,f42887_e_287 copy.png,f42887_e_238 copy.png,B,0,0,4,['B'],['C'],185500,bRMS
40,3,B,1,D,,1772.3,f42887_e_161 copy.png,f42887_e_069 copy.png,B,1,0,4,['B'],['C'],187890,bRMS
41,3,B,0,D,,2234.2,f42887_e_120 copy.png,f42887_e_134 copy.png,B,0,0,4,['B'],['C'],190829,bRMS
42,3,B,1,D,,1894.9,f42887_e_016 copy.png,f42887_e_197 copy.png,B,1,0,4,['B'],['C'],193344,bRMS
43,3,B,0,K,,2901.3,f42887_e_289 copy.png,f42887_e_179 copy.png,B,0,0,4,['B'],['C'],196857,bRMS
44,3,B,0,K,,2366.8,f42887_e_235 copy.png,f42887_e_210 copy.png,B,0,0,4,['B'],['C'],199838,bRMS
45,3,B,1,D,,5420.5,f42887_e_080 copy.png,f42887_e_240 copy.png,B,1,0,4,['B'],['C'],205859,bRMS
46,2,A,1,K,,1995.1,f42887_e_025 copy.png,f42887_e_266 copy.png,A,1,0,4,['A'],['C'],208508,bRMS
47,2,A,0,K,,1996,f42887_e_156 copy.png,f42887_e_240 copy.png,A,0,0,4,['A'],['C'],211113,bRMS
48,2,A,1,D,,2479.2,f42887_e_252 copy.png,f42887_e_021 copy.png,A,1,0,4,['A'],['C'],214213,bRMS
49,2,A,1,D,,3891.9,f42887_e_025 copy.png,f42887_e_024 copy.png,A,1,0,4,['A'],['C'],218737,bRMS
50,2,A,1,K,,2835.4,f42887_e_298 copy.png,f42887_e_265 copy.png,A,1,0,4,['A'],['C'],222181,bRMS
51,2,A,1,K,,2153.5,f42887_e_064 copy.png,f42887_e_210 copy.png,A,1,0,4,['A'],['C'],224946,bRMS
52,2,A,0,D,,2205.7,f42887_e_252 copy.png,f42887_e_273 copy.png,A,0,0,4,['A'],['C'],227746,bRMS
53,2,A,0,K,,2602.6,f42887_e_156 copy.png,f42887_e_068 copy.png,A,0,0,4,['A'],['C'],231009,bRMS
54,2,A,1,K,,4028.1,f42887_e_127 copy.png,f42887_e_238 copy.png,A,1,0,4,['A'],['C'],235624,bRMS
55,2,A,0,K,,2799.5,f42887_e_058 copy.png,f42887_e_134 copy.png,A,0,0,4,['A'],['C'],239033,bRMS
56,2,A,0,K,,1970.1,f42887_e_298 copy.png,f42887_e_069 copy.png,A,0,0,4,['A'],['C'],241612,bRMS
57,2,A,0,K,,2146.9,f42887_e_064 copy.png,f42887_e_197 copy.png,A,0,0,4,['A'],['C'],244345,bRMS
58,2,A,1,D,,1396.6,f42887_e_127 copy.png,f42887_e_176 copy.png,A,1,0,4,['A'],['C'],246362,bRMS
59,2,A,1,D,,2680.3,f42887_e_058 copy.png,f42887_e_201 copy.png,A,1,0,4,['A'],['C'],249625,bRMS
60,2,A,0,D,,2053.9,f42887_e_121 copy.png,f42887_e_212 copy.png,A,0,0,4,['A'],['C'],252334,bRMS
61,2,A,0,D,,2114.3,f42887_e_121 copy.png,f42887_e_067 copy.png,A,0,0,4,['A'],['C'],255066,bRMS
62,2,A,1,K,,4724.5,f42887_e_005 copy.png,f42887_e_291 copy.png,A,1,0,4,['A'],['C'],260396,bRMS
63,4,B,1,D,,2629.3,f42887_e_295 copy.png,f42887_e_165 copy.png,B,1,0,4,['B'],['D'],263682,bRMS
64,4,B,0,K,,1568.4,f42887_e_065 copy.png,f42887_e_293 copy.png,B,0,0,4,['B'],['D'],265973,bRMS
65,4,B,0,K,,1884,f42887_e_004 copy.png,f42887_e_189 copy.png,B,0,0,4,['B'],['D'],268449,bRMS
66,4,B,0,K,,2472.3,f42887_e_080 copy.png,f42887_e_218 copy.png,B,0,0,4,['B'],['D'],271549,bRMS
67,4,B,1,K,,2491.7,f42887_e_200 copy.png,f42887_e_028 copy.png,B,1,0,4,['B'],['D'],274631,bRMS
68,4,B,1,D,,2093.5,f42887_e_056 copy.png,f42887_e_096 copy.png,B,1,0,4,['B'],['D'],277327,bRMS
69,4,B,0,K,,1776.8,f42887_e_161 copy.png,f42887_e_178 copy.png,B,0,0,4,['B'],['D'],279711,bRMS
70,4,B,1,K,,2634.2,f42887_e_180 copy.png,f42887_e_043 copy.png,B,1,0,4,['B'],['D'],282948,bRMS
71,4,B,1,K,,2413.2,f42887_e_166 copy.png,f42887_e_241 copy.png,B,1,0,4,['B'],['D'],285961,bRMS
72,4,B,1,K,,1595.7,f42887_e_289 copy.png,f42887_e_038 copy.png,B,1,0,4,['B'],['D'],288181,bRMS
73,4,B,1,D,,2618.1,f42887_e_191 copy.png,f42887_e_296 copy.png,B,1,0,4,['B'],['D'],291402,bRMS
74,4,B,0,K,,2036.2,f42887_e_231 copy.png,f42887_e_152 copy.png,B,0,0,4,['B'],['D'],294057,bRMS
75,4,B,1,D,,1584.2,f42887_e_016 copy.png,f42887_e_103 copy.png,B,1,0,4,['B'],['D'],296276,bRMS
76,4,B,1,D,,1730.2,f42887_e_287 copy.png,f42887_e_122 copy.png,B,1,0,4,['B'],['D'],298646,bRMS
77,4,B,1,D,,1505.6,f42887_e_120 copy.png,f42887_e_237 copy.png,B,1,0,4,['B'],['D'],300747,bRMS
78,4,B,1,D,,1769.5,f42887_e_054 copy.png,f42887_e_278 copy.png,B,1,0,4,['B'],['D'],303106,bRMS
79,4,B,0,K,,1370.7,f42887_e_235 copy.png,f42887_e_157 copy.png,B,0,0,4,['B'],['D'],305059,bRMS
80,6,C,1,D,,1467.1,f42887_e_024 copy.png,f42887_e_145 copy.png,C,1,0,4,['C'],['E'],307152,bRMS
81,6,C,0,K,,1564.3,f42887_e_212 copy.png,f42887_e_169 copy.png,C,0,0,4,['C'],['E'],309312,bRMS
82,6,C,0,K,,1533.5,f42887_e_201 copy.png,f42887_e_146 copy.png,C,0,0,4,['C'],['E'],311450,bRMS
83,6,C,1,D,,1252.9,f42887_e_176 copy.png,f42887_e_146 copy.png,C,1,0,4,['C'],['E'],313298,bRMS
84,6,C,1,D,,1395.1,f42887_e_134 copy.png,f42887_e_290 copy.png,C,1,0,4,['C'],['E'],315309,bRMS
85,6,C,0,K,,1118.9,f42887_e_210 copy.png,f42887_e_215 copy.png,C,0,0,4,['C'],['E'],317047,bRMS
86,6,C,0,K,,1320.5,f42887_e_067 copy.png,f42887_e_209 copy.png,C,0,0,4,['C'],['E'],318961,bRMS
87,6,C,0,K,,1723.2,f42887_e_273 copy.png,f42887_e_209 copy.png,C,0,0,4,['C'],['E'],321289,bRMS
88,6,C,0,K,,1327.2,f42887_e_265 copy.png,f42887_e_044 copy.png,C,0,0,4,['C'],['E'],323228,bRMS
89,6,C,1,D,,1270.6,f42887_e_021 copy.png,f42887_e_040 copy.png,C,1,0,4,['C'],['E'],325118,bRMS
90,6,C,1,D,,1454.4,f42887_e_069 copy.png,f42887_e_000 copy.png,C,1,0,4,['C'],['E'],327244,bRMS
91,6,C,0,K,,1296.3,f42887_e_068 copy.png,f42887_e_213 copy.png,C,0,0,4,['C'],['E'],329150,bRMS
92,6,C,0,K,,1657.9,f42887_e_291 copy.png,f42887_e_085 copy.png,C,0,0,4,['C'],['E'],331518,bRMS
93,6,C,0,K,,1547.4,f42887_e_238 copy.png,f42887_e_051 copy.png,C,0,0,4,['C'],['E'],333783,bRMS
94,6,C,1,D,,1311.2,f42887_e_266 copy.png,f42887_e_167 copy.png,C,1,0,4,['C'],['E'],335766,bRMS
95,6,C,1,D,,1361.1,f42887_e_240 copy.png,f42887_e_099 copy.png,C,1,0,4,['C'],['E'],337733,bRMS
96,6,C,1,D,,1635.7,f42887_e_197 copy.png,f42887_e_285 copy.png,C,1,0,4,['C'],['E'],340016,bRMS
97,6,C,1,D,,1796.3,f42887_e_179 copy.png,f42887_e_051 copy.png,C,1,0,4,['C'],['E'],342410,bRMS
98,7,D,0,K,,1438.3,f42887_e_122 copy.png,f42887_e_290 copy.png,D,0,0,4,['D'],['E'],344456,bRMS
99,7,D,1,D,,1671.4,f42887_e_165 copy.png,f42887_e_146 copy.png,D,1,0,4,['D'],['E'],346751,bRMS
100,7,D,1,D,,1343.3,f42887_e_278 copy.png,f42887_e_040 copy.png,D,1,0,4,['D'],['E'],348730,bRMS
101,7,D,0,K,,1294.9,f42887_e_218 copy.png,f42887_e_051 copy.png,D,0,0,4,['D'],['E'],350633,bRMS
102,7,D,1,D,,1095.4,f42887_e_178 copy.png,f42887_e_099 copy.png,D,1,0,4,['D'],['E'],352383,bRMS
103,7,D,0,K,,1194.6,f42887_e_096 copy.png,f42887_e_209 copy.png,D,0,0,4,['D'],['E'],354183,bRMS
104,7,D,0,K,,1368.8,f42887_e_028 copy.png,f42887_e_167 copy.png,D,0,0,4,['D'],['E'],356149,bRMS
105,7,D,0,K,,942.9,f42887_e_189 copy.png,f42887_e_146 copy.png,D,0,0,4,['D'],['E'],357977,bRMS
106,7,D,0,K,,1010.2,f42887_e_241 copy.png,f42887_e_085 copy.png,D,0,0,4,['D'],['E'],359598,bRMS
107,7,D,0,K,,957.8,f42887_e_293 copy.png,f42887_e_169 copy.png,D,0,0,4,['D'],['E'],361358,bRMS
108,7,D,1,D,,1248.2,f42887_e_103 copy.png,f42887_e_051 copy.png,D,1,0,4,['D'],['E'],363236,bRMS
109,7,D,1,D,,1429.9,f42887_e_157 copy.png,f42887_e_145 copy.png,D,1,0,4,['D'],['E'],365375,bRMS
110,7,D,1,D,,1017,f42887_e_296 copy.png,f42887_e_000 copy.png,D,1,0,4,['D'],['E'],366981,bRMS
111,7,D,0,K,,1003.2,f42887_e_043 copy.png,f42887_e_044 copy.png,D,0,0,4,['D'],['E'],368733,bRMS
112,7,D,0,K,,1094.1,f42887_e_237 copy.png,f42887_e_213 copy.png,D,0,0,4,['D'],['E'],370448,bRMS
113,7,D,1,D,,1385.2,f42887_e_152 copy.png,f42887_e_285 copy.png,D,1,0,4,['D'],['E'],372469,bRMS
114,7,D,0,K,,890.4,f42887_e_038 copy.png,f42887_e_209 copy.png,D,0,0,4,['D'],['E'],374068,bRMS
115,5,C,0,K,,1557.9,f42887_e_212 copy.png,f42887_e_157 copy.png,C,0,0,4,['C'],['D'],376329,bRMS
116,5,C,1,D,,1726.1,f42887_e_197 copy.png,f42887_e_103 copy.png,C,1,0,4,['C'],['D'],378708,bRMS
117,5,C,0,K,,1401.1,f42887_e_291 copy.png,f42887_e_296 copy.png,C,0,0,4,['C'],['D'],380722,bRMS
118,5,C,0,K,,1247.4,f42887_e_210 copy.png,f42887_e_189 copy.png,C,0,0,4,['C'],['D'],382614,bRMS
119,5,C,1,D,,1274.1,f42887_e_021 copy.png,f42887_e_038 copy.png,C,1,0,4,['C'],['D'],384517,bRMS
120,5,C,1,D,,1268.6,f42887_e_266 copy.png,f42887_e_043 copy.png,C,1,0,4,['C'],['D'],386396,bRMS
121,5,C,0,K,,1561.9,f42887_e_069 copy.png,f42887_e_278 copy.png,C,0,0,4,['C'],['D'],388560,bRMS
122,5,C,0,K,,1150.1,f42887_e_024 copy.png,f42887_e_028 copy.png,C,0,0,4,['C'],['D'],390351,bRMS
123,5,C,0,K,,1279.8,f42887_e_265 copy.png,f42887_e_165 copy.png,C,0,0,4,['C'],['D'],392280,bRMS
124,5,C,0,K,,1127.3,f42887_e_134 copy.png,f42887_e_096 copy.png,C,0,0,4,['C'],['D'],393997,bRMS
125,5,C,0,K,,1255.3,f42887_e_238 copy.png,f42887_e_218 copy.png,C,0,0,4,['C'],['D'],395922,bRMS
126,5,C,0,K,,1179.7,f42887_e_067 copy.png,f42887_e_237 copy.png,C,0,0,4,['C'],['D'],397741,bRMS
127,5,C,0,K,,1305,f42887_e_240 copy.png,f42887_e_122 copy.png,C,0,0,4,['C'],['D'],399634,bRMS
128,5,C,1,D,,1068.8,f42887_e_273 copy.png,f42887_e_241 copy.png,C,1,0,4,['C'],['D'],401363,bRMS
129,5,C,1,D,,1383.6,f42887_e_068 copy.png,f42887_e_293 copy.png,C,1,0,4,['C'],['D'],403396,bRMS
130,5,C,1,D,,1476.8,f42887_e_201 copy.png,f42887_e_178 copy.png,C,1,0,4,['C'],['D'],405478,bRMS
131,5,C,1,D,,1270.5,f42887_e_176 copy.png,f42887_e_152 copy.png,C,1,0,4,['C'],['D'],407404,bRMS
132,,,,,,5179,,,,,,,,,412999,instructions
133,,,,,"{""Q0"":""Man"",""Q1"":""Right"",""Q2"":""Yes"",""Q3"":""No""}",24500,,,,,,,,,437506,survey-multi-choice
134,,,,,"{""Q0"":3,""Q1"":3}",11468,,,,,,,,,448977,survey-likert
135,,,,,"{""Q0"":2}",26426,,,,,,,,,475405,survey-likert
136,,,,,,3281,,,,,,,,,478686,instructions
0,,,,,,398704,,,,,,,,,398704,instructions
1,0,training,1,D,,5770.7,Training6.png,,training,1,0,6,,,404571,bRMS
2,0,training,0,K,,1062,Training9.png,,training,0,0,6,,,406113,bRMS
3,0,training,1,D,,1388.2,Training2.png,,training,1,0,6,,,407985,bRMS
4,0,training,0,K,,1392.4,Training3.png,,training,0,0,6,,,409857,bRMS
5,0,training,1,D,,1000.7,Training1.png,,training,1,0,6,,,411337,bRMS
6,0,training,1,D,,1250.1,Training7.png,,training,1,0,6,,,413082,bRMS
7,0,training,0,K,,1454.1,Training8.png,,training,0,0,6,,,415017,bRMS
8,0,training,1,D,,960.3,Training10.png,,training,1,0,6,,,416456,bRMS
9,0,training,0,K,,992.6,Training4.png,,training,0,0,6,,,417938,bRMS
10,0,training,0,K,,1208.7,Training5.png,,training,0,0,6,,,419625,bRMS
11,,,,,,4170,,,,,,,,,424196,instructions
12,1,A,0,K,,1070.9,f42887_e_252 copy.png,f42887_e_166 copy.png,A,0,0,6,['A'],['B'],425345,bRMS
13,1,A,1,D,,867.6,f42887_e_252 copy.png,f42887_e_287 copy.png,A,1,0,6,['A'],['B'],426696,bRMS
14,1,A,0,K,,898.5,f42887_e_025 copy.png,f42887_e_231 copy.png,A,0,0,6,['A'],['B'],428072,bRMS
15,1,A,1,D,,889.2,f42887_e_121 copy.png,f42887_e_004 copy.png,A,1,0,6,['A'],['B'],429441,bRMS
16,1,A,0,K,,857.2,f42887_e_058 copy.png,f42887_e_295 copy.png,A,0,0,6,['A'],['B'],430785,bRMS
17,1,A,0,K,,943.5,f42887_e_064 copy.png,f42887_e_120 copy.png,A,0,0,6,['A'],['B'],432209,bRMS
18,1,A,0,K,,991.9,f42887_e_127 copy.png,f42887_e_080 copy.png,A,0,0,6,['A'],['B'],433689,bRMS
19,1,A,0,K,,865.3,f42887_e_156 copy.png,f42887_e_056 copy.png,A,0,0,6,['A'],['B'],435033,bRMS
20,1,A,1,D,,1153.2,f42887_e_127 copy.png,f42887_e_054 copy.png,A,1,0,6,['A'],['B'],436666,bRMS
21,1,A,0,K,,843.4,f42887_e_156 copy.png,f42887_e_016 copy.png,A,0,0,6,['A'],['B'],437994,bRMS
22,1,A,1,D,,806,f42887_e_298 copy.png,f42887_e_191 copy.png,A,1,0,6,['A'],['B'],439281,bRMS
23,1,A,1,D,,961.6,f42887_e_121 copy.png,f42887_e_200 copy.png,A,1,0,6,['A'],['B'],440723,bRMS
24,1,A,0,K,,981.6,f42887_e_025 copy.png,f42887_e_235 copy.png,A,0,0,6,['A'],['B'],442187,bRMS
25,1,A,1,D,,928.7,f42887_e_058 copy.png,f42887_e_161 copy.png,A,1,0,6,['A'],['B'],443596,bRMS
26,1,A,1,D,,1294.7,f42887_e_064 copy.png,f42887_e_289 copy.png,A,1,0,6,['A'],['B'],445371,bRMS
27,1,A,1,D,,819.4,f42887_e_298 copy.png,f42887_e_065 copy.png,A,1,0,6,['A'],['B'],446675,bRMS
28,1,A,1,D,,958.3,f42887_e_005 copy.png,f42887_e_180 copy.png,A,1,0,6,['A'],['B'],448116,bRMS
29,3,B,0,K,,1167,f42887_e_289 copy.png,f42887_e_176 copy.png,B,0,0,6,['B'],['C'],449762,bRMS
30,3,B,0,K,,1064.4,f42887_e_161 copy.png,f42887_e_179 copy.png,B,0,0,6,['B'],['C'],451314,bRMS
31,3,B,1,D,,1881.4,f42887_e_191 copy.png,f42887_e_021 copy.png,B,1,0,6,['B'],['C'],453674,bRMS
32,3,B,0,K,,1261.4,f42887_e_120 copy.png,f42887_e_238 copy.png,B,0,0,6,['B'],['C'],455419,bRMS
33,3,B,1,D,,1041.9,f42887_e_180 copy.png,f42887_e_265 copy.png,B,1,0,6,['B'],['C'],456939,bRMS
34,3,B,0,K,,1192.5,f42887_e_056 copy.png,f42887_e_068 copy.png,B,0,0,6,['B'],['C'],458610,bRMS
35,3,B,1,D,,997.1,f42887_e_166 copy.png,f42887_e_067 copy.png,B,1,0,6,['B'],['C'],460090,bRMS
36,3,B,0,K,,856.9,f42887_e_200 copy.png,f42887_e_240 copy.png,B,0,0,6,['B'],['C'],461426,bRMS
37,3,B,1,D,,805.7,f42887_e_004 copy.png,f42887_e_024 copy.png,B,1,0,6,['B'],['C'],462715,bRMS
38,3,B,1,D,,820.9,f42887_e_080 copy.png,f42887_e_266 copy.png,B,1,0,6,['B'],['C'],464018,bRMS
39,3,B,1,D,,963,f42887_e_295 copy.png,f42887_e_210 copy.png,B,1,0,6,['B'],['C'],465459,bRMS
40,3,B,0,K,,1203.5,f42887_e_054 copy.png,f42887_e_134 copy.png,B,0,0,6,['B'],['C'],467146,bRMS
41,3,B,1,D,,1176.3,f42887_e_016 copy.png,f42887_e_197 copy.png,B,1,0,6,['B'],['C'],468819,bRMS
42,3,B,1,D,,1202.2,f42887_e_065 copy.png,f42887_e_212 copy.png,B,1,0,6,['B'],['C'],470497,bRMS
43,3,B,0,K,,942.9,f42887_e_287 copy.png,f42887_e_273 copy.png,B,0,0,6,['B'],['C'],471923,bRMS
44,3,B,1,D,,1051.4,f42887_e_231 copy.png,f42887_e_069 copy.png,B,1,0,6,['B'],['C'],473452,bRMS
45,3,B,0,K,,984.7,f42887_e_235 copy.png,f42887_e_291 copy.png,B,0,0,6,['B'],['C'],474914,bRMS
46,2,A,1,D,,1462.9,f42887_e_064 copy.png,f42887_e_068 copy.png,A,1,0,6,['A'],['C'],476859,bRMS
47,2,A,0,K,,1209.4,f42887_e_121 copy.png,f42887_e_024 copy.png,A,0,0,6,['A'],['C'],478546,bRMS
48,2,A,1,D,,994.2,f42887_e_298 copy.png,f42887_e_265 copy.png,A,1,0,6,['A'],['C'],480019,bRMS
49,2,A,1,D,,1037.2,f42887_e_025 copy.png,f42887_e_067 copy.png,A,1,0,6,['A'],['C'],481538,bRMS
50,2,A,1,D,,1098.6,f42887_e_064 copy.png,f42887_e_266 copy.png,A,1,0,6,['A'],['C'],483113,bRMS
51,2,A,0,K,,826.2,f42887_e_156 copy.png,f42887_e_197 copy.png,A,0,0,6,['A'],['C'],484419,bRMS
52,2,A,0,K,,974,f42887_e_121 copy.png,f42887_e_210 copy.png,A,0,0,6,['A'],['C'],485874,bRMS
53,2,A,0,K,,1042.2,f42887_e_025 copy.png,f42887_e_134 copy.png,A,0,0,6,['A'],['C'],487395,bRMS
54,2,A,0,K,,1010.2,f42887_e_127 copy.png,f42887_e_176 copy.png,A,0,0,6,['A'],['C'],488884,bRMS
55,2,A,1,D,,940.8,f42887_e_058 copy.png,f42887_e_021 copy.png,A,1,0,6,['A'],['C'],490306,bRMS
56,2,A,1,D,,1100,f42887_e_005 copy.png,f42887_e_240 copy.png,A,1,0,6,['A'],['C'],491882,bRMS
57,2,A,0,K,,978.1,f42887_e_252 copy.png,f42887_e_238 copy.png,A,0,0,6,['A'],['C'],493339,bRMS
58,2,A,0,K,,1105.1,f42887_e_252 copy.png,f42887_e_201 copy.png,A,0,0,6,['A'],['C'],494931,bRMS
59,2,A,0,K,,1161.8,f42887_e_156 copy.png,f42887_e_212 copy.png,A,0,0,6,['A'],['C'],496569,bRMS
60,2,A,0,K,,1064.5,f42887_e_127 copy.png,f42887_e_291 copy.png,A,0,0,6,['A'],['C'],498115,bRMS
61,2,A,0,K,,801,f42887_e_298 copy.png,f42887_e_179 copy.png,A,0,0,6,['A'],['C'],499394,bRMS
62,2,A,1,D,,1161.4,f42887_e_058 copy.png,f42887_e_273 copy.png,A,1,0,6,['A'],['C'],501035,bRMS
63,4,B,0,K,,1167.8,f42887_e_054 copy.png,f42887_e_241 copy.png,B,0,0,6,['B'],['D'],502684,bRMS
64,4,B,0,K,,898.5,f42887_e_235 copy.png,f42887_e_165 copy.png,B,0,0,6,['B'],['D'],504060,bRMS
65,4,B,0,K,,1020,f42887_e_180 copy.png,f42887_e_237 copy.png,B,0,0,6,['B'],['D'],505556,bRMS
66,4,B,1,D,,820,f42887_e_289 copy.png,f42887_e_293 copy.png,B,1,0,6,['B'],['D'],506861,bRMS
67,4,B,0,K,,1080.7,f42887_e_016 copy.png,f42887_e_038 copy.png,B,0,0,6,['B'],['D'],508420,bRMS
68,4,B,0,K,,881.6,f42887_e_191 copy.png,f42887_e_152 copy.png,B,0,0,6,['B'],['D'],509780,bRMS
69,4,B,0,K,,1093.2,f42887_e_065 copy.png,f42887_e_043 copy.png,B,0,0,6,['B'],['D'],511355,bRMS
70,4,B,1,D,,867.8,f42887_e_166 copy.png,f42887_e_278 copy.png,B,1,0,6,['B'],['D'],512700,bRMS
71,4,B,0,K,,933.4,f42887_e_120 copy.png,f42887_e_103 copy.png,B,0,0,6,['B'],['D'],514115,bRMS
72,4,B,1,D,,914.6,f42887_e_287 copy.png,f42887_e_218 copy.png,B,1,0,6,['B'],['D'],515508,bRMS
73,4,B,0,K,,769.4,f42887_e_056 copy.png,f42887_e_296 copy.png,B,0,0,6,['B'],['D'],516756,bRMS
74,4,B,1,D,,902.2,f42887_e_161 copy.png,f42887_e_157 copy.png,B,1,0,6,['B'],['D'],518142,bRMS
75,4,B,1,D,,872.6,f42887_e_200 copy.png,f42887_e_178 copy.png,B,1,0,6,['B'],['D'],519491,bRMS
76,4,B,1,D,,1073.9,f42887_e_080 copy.png,f42887_e_189 copy.png,B,1,0,6,['B'],['D'],521044,bRMS
77,4,B,1,D,,1057.8,f42887_e_295 copy.png,f42887_e_096 copy.png,B,1,0,6,['B'],['D'],522580,bRMS
78,4,B,0,D,,1067.4,f42887_e_004 copy.png,f42887_e_028 copy.png,B,0,0,6,['B'],['D'],524131,bRMS
79,4,B,0,D,,1100.5,f42887_e_231 copy.png,f42887_e_122 copy.png,B,0,0,6,['B'],['D'],525715,bRMS
80,7,D,0,K,,931.1,f42887_e_122 copy.png,f42887_e_040 copy.png,D,0,0,6,['D'],['E'],527125,bRMS
81,7,D,0,K,,922,f42887_e_178 copy.png,f42887_e_051 copy.png,D,0,0,6,['D'],['E'],528525,bRMS
82,7,D,1,D,,907.1,f42887_e_028 copy.png,f42887_e_146 copy.png,D,1,0,6,['D'],['E'],529909,bRMS
83,7,D,1,D,,961.7,f42887_e_165 copy.png,f42887_e_146 copy.png,D,1,0,6,['D'],['E'],531347,bRMS
84,7,D,0,K,,1150.1,f42887_e_218 copy.png,f42887_e_085 copy.png,D,0,0,6,['D'],['E'],532980,bRMS
85,7,D,0,K,,851.2,f42887_e_278 copy.png,f42887_e_285 copy.png,D,0,0,6,['D'],['E'],534309,bRMS
86,7,D,0,K,,1441.9,f42887_e_189 copy.png,f42887_e_099 copy.png,D,0,0,6,['D'],['E'],536228,bRMS
87,7,D,0,K,,1223.7,f42887_e_038 copy.png,f42887_e_000 copy.png,D,0,0,6,['D'],['E'],537931,bRMS
88,7,D,1,D,,962.3,f42887_e_152 copy.png,f42887_e_209 copy.png,D,1,0,6,['D'],['E'],539372,bRMS
89,7,D,0,K,,1213.7,f42887_e_103 copy.png,f42887_e_290 copy.png,D,0,0,6,['D'],['E'],541068,bRMS
90,7,D,1,D,,937.8,f42887_e_241 copy.png,f42887_e_213 copy.png,D,1,0,6,['D'],['E'],542485,bRMS
91,7,D,1,D,,913.2,f42887_e_296 copy.png,f42887_e_169 copy.png,D,1,0,6,['D'],['E'],543876,bRMS
92,7,D,1,D,,978.2,f42887_e_043 copy.png,f42887_e_209 copy.png,D,1,0,6,['D'],['E'],545331,bRMS
93,7,D,1,D,,990.4,f42887_e_237 copy.png,f42887_e_044 copy.png,D,1,0,6,['D'],['E'],546796,bRMS
94,7,D,1,D,,953.6,f42887_e_096 copy.png,f42887_e_215 copy.png,D,1,0,6,['D'],['E'],548227,bRMS
95,7,D,1,D,,944.7,f42887_e_157 copy.png,f42887_e_051 copy.png,D,1,0,6,['D'],['E'],549651,bRMS
96,7,D,1,D,,915.2,f42887_e_293 copy.png,f42887_e_145 copy.png,D,1,0,6,['D'],['E'],551044,bRMS
97,6,C,1,D,,890.9,f42887_e_067 copy.png,f42887_e_146 copy.png,C,1,0,6,['C'],['E'],552412,bRMS
98,6,C,1,D,,985.8,f42887_e_179 copy.png,f42887_e_051 copy.png,C,1,0,6,['C'],['E'],553876,bRMS
99,6,C,1,D,,1080.5,f42887_e_134 copy.png,f42887_e_167 copy.png,C,1,0,6,['C'],['E'],555435,bRMS
100,6,C,0,K,,1261,f42887_e_210 copy.png,f42887_e_213 copy.png,C,0,0,6,['C'],['E'],557179,bRMS
101,6,C,0,K,,1137.2,f42887_e_240 copy.png,f42887_e_044 copy.png,C,0,0,6,['C'],['E'],558797,bRMS
102,6,C,1,D,,1024.1,f42887_e_021 copy.png,f42887_e_000 copy.png,C,1,0,6,['C'],['E'],560300,bRMS
103,6,C,1,D,,805.5,f42887_e_273 copy.png,f42887_e_285 copy.png,C,1,0,6,['C'],['E'],561589,bRMS
104,6,C,1,D,,843.4,f42887_e_265 copy.png,f42887_e_209 copy.png,C,1,0,6,['C'],['E'],562910,bRMS
105,6,C,1,K,,816.2,f42887_e_201 copy.png,f42887_e_099 copy.png,C,1,0,6,['C'],['E'],564205,bRMS
106,6,C,1,D,,875.4,f42887_e_238 copy.png,f42887_e_209 copy.png,C,1,0,6,['C'],['E'],565565,bRMS
107,6,C,0,K,,969.8,f42887_e_176 copy.png,f42887_e_290 copy.png,C,0,0,6,['C'],['E'],567014,bRMS
108,6,C,0,K,,1033.6,f42887_e_197 copy.png,f42887_e_085 copy.png,C,0,0,6,['C'],['E'],568523,bRMS
109,6,C,1,D,,871.5,f42887_e_069 copy.png,f42887_e_169 copy.png,C,1,0,6,['C'],['E'],569878,bRMS
110,6,C,0,K,,1080.5,f42887_e_291 copy.png,f42887_e_051 copy.png,C,0,0,6,['C'],['E'],571436,bRMS
111,6,C,1,D,,806.9,f42887_e_024 copy.png,f42887_e_146 copy.png,C,1,0,6,['C'],['E'],572724,bRMS
112,6,C,0,K,,686.6,f42887_e_266 copy.png,f42887_e_040 copy.png,C,0,0,6,['C'],['E'],573884,bRMS
113,6,C,0,K,,832.3,f42887_e_212 copy.png,f42887_e_215 copy.png,C,0,0,6,['C'],['E'],575205,bRMS
114,6,C,1,D,,790.9,f42887_e_068 copy.png,f42887_e_145 copy.png,C,1,0,6,['C'],['E'],576477,bRMS
115,5,C,0,K,,690.6,f42887_e_179 copy.png,f42887_e_178 copy.png,C,0,0,6,['C'],['D'],577653,bRMS
116,5,C,0,K,,1236.5,f42887_e_291 copy.png,f42887_e_237 copy.png,C,0,0,6,['C'],['D'],579373,bRMS
117,5,C,1,D,,1139.6,f42887_e_021 copy.png,f42887_e_157 copy.png,C,1,0,6,['C'],['D'],580989,bRMS
118,5,C,1,K,,972.3,f42887_e_273 copy.png,f42887_e_218 copy.png,C,1,0,6,['C'],['D'],582445,bRMS
119,5,C,1,D,,1064.7,f42887_e_212 copy.png,f42887_e_296 copy.png,C,1,0,6,['C'],['D'],583988,bRMS
120,5,C,0,K,,1061.1,f42887_e_068 copy.png,f42887_e_189 copy.png,C,0,0,6,['C'],['D'],585532,bRMS
121,5,C,1,D,,913.5,f42887_e_134 copy.png,f42887_e_293 copy.png,C,1,0,6,['C'],['D'],586927,bRMS
122,5,C,1,D,,1113,f42887_e_024 copy.png,f42887_e_122 copy.png,C,1,0,6,['C'],['D'],588515,bRMS
123,5,C,0,K,,890.4,f42887_e_265 copy.png,f42887_e_096 copy.png,C,0,0,6,['C'],['D'],589885,bRMS
124,5,C,1,D,,1166.7,f42887_e_266 copy.png,f42887_e_165 copy.png,C,1,0,6,['C'],['D'],591533,bRMS
125,5,C,1,D,,998.6,f42887_e_240 copy.png,f42887_e_038 copy.png,C,1,0,6,['C'],['D'],593013,bRMS
126,5,C,0,K,,1001,f42887_e_238 copy.png,f42887_e_241 copy.png,C,0,0,6,['C'],['D'],594493,bRMS
127,5,C,0,K,,1001.3,f42887_e_176 copy.png,f42887_e_043 copy.png,C,0,0,6,['C'],['D'],595974,bRMS
128,5,C,0,K,,933,f42887_e_210 copy.png,f42887_e_103 copy.png,C,0,0,6,['C'],['D'],597389,bRMS
129,5,C,1,D,,904.7,f42887_e_069 copy.png,f42887_e_278 copy.png,C,1,0,6,['C'],['D'],598772,bRMS
130,5,C,0,K,,906.5,f42887_e_197 copy.png,f42887_e_152 copy.png,C,0,0,6,['C'],['D'],600157,bRMS
131,5,C,1,D,,1005.8,f42887_e_067 copy.png,f42887_e_028 copy.png,C,1,0,6,['C'],['D'],601645,bRMS
132,,,,,,27750,,,,,,,,,629796,instructions
133,,,,,"{""Q0"":""Man"",""Q1"":""Right"",""Q2"":""No"",""Q3"":""No""}",12339,,,,,,,,,642142,survey-multi-choice
134,,,,,"{""Q0"":3,""Q1"":2}",5773,,,,,,,,,647917,survey-likert
135,,,,,"{""Q0"":1}",4897,,,,,,,,,652814,survey-likert
136,,,,,,2015,,,,,,,,,654830,instructions
